# Created by fistar 1.0rc5 (fi: 0.9.4)
# Invoked command: fistar --comment --flux-threshold 3000 --sort flux --format id,x,y,s,d,k,flux,bg,s/n
# Ident        X        Y      S      D      K       Flux       Bg      S/N 
#  [ 1]     [ 2]     [ 3]   [ 4]   [ 5]   [ 6]       [ 7]     [ 8]     [ 9] 
    116  358.235  253.172  0.439  0.007  0.009  253250.30   687.52   2654.5 
     95  509.127  193.019  0.429  0.015  0.003  203247.24   688.44   1907.5 
    111  305.431  240.084  0.419  0.005 -0.001   67507.24   475.95    545.7 
    196  126.431  409.427  0.081  0.074  0.026   59033.72   241.55    798.8 
    143   54.822  330.558  0.507 -0.021  0.008   34850.12   445.85    270.2 
    140  611.756  327.730  0.243 -0.236 -0.043   25912.56   307.47    279.2 
    183  565.831  392.959  0.229  0.160  0.159   24993.83   313.81    249.3 
    216  501.217  458.533  0.171  0.149 -0.071   24303.35   295.44    254.8 
    133   99.305  306.884  0.084 -0.003  0.048   23105.82   253.89    246.3 
     37  440.677   80.374  0.693 -0.034 -0.051   20922.51   440.67    173.5 
     19  541.618   48.953  0.240  0.046  0.231   20889.07   407.22    219.6 
      9  622.255   17.912  0.097  0.027  0.039   20683.44   404.75    266.0 
    205  605.310  441.324  0.108 -0.006  0.087   20137.27   294.84    237.9 
    214   49.506  456.525 36.465  4.644 30.728   18483.87   348.23    330.8 
    121  136.439  267.956  0.084  0.050 -0.044   18205.12   309.39    262.2 
      3  632.880   10.933  0.097  0.065  0.025   16994.90   458.66    134.7 
     92  564.148  188.365  0.150  0.057  0.109   15761.10   269.23    192.6 
    156  155.220  348.839  0.236  0.077  0.089   13186.51   326.40    169.9 
    142  605.557  328.630  0.845  0.149 -0.077   13039.35   432.29    107.6 
    105  140.995  234.496  4.649 -1.668  0.094   12214.51   413.59    132.8 
    181   91.929  388.704  0.493 -0.030  0.081   12078.91   371.66    135.3 
     11  549.670   21.785  0.412 -0.076  0.107   11732.75   495.34    129.5 
    182  130.445  391.308  0.070 -0.024  0.023   11624.93   327.53    160.4 
    149   36.795  343.849  0.630 -0.617 -0.105   10990.23   356.49    122.2 
    173  529.029  380.310  0.200  0.029  0.177    9870.17   294.97    143.8 
    161  324.793  356.720  0.652 -0.174  0.047    8775.40   446.79     85.9 
     44   23.100  100.251  0.413 -0.041  0.399    8739.59   342.61     89.2 
    132  325.537  302.874  0.192 -0.107  0.055    8732.22   288.59     88.8 
    104  383.395  226.431  0.179  0.013  0.010    8720.42   264.97     85.7 
    179  121.490  388.518 10.853 -0.801 -3.889    8538.35   395.59    195.8 
     71  178.465  144.696  0.245  0.000  0.000    8415.93   340.74    117.2 
     93  241.388  192.006  0.242 -0.163  0.109    8402.59   291.07    100.1 
    100  420.076  222.585  0.292 -0.060  0.031    8133.06   379.29     77.4 
    191  552.085  404.321  0.083 -0.022 -0.044    8075.26   310.06     94.0 
    169  206.877  375.486  0.073  0.006 -0.019    8028.76   315.35     93.2 
     52   45.327  107.548  0.102 -0.016  0.037    7898.18   331.31     97.5 
     57  339.272  115.229  0.133  0.093  0.011    7753.49   350.73     85.2 
     24  329.955   66.710  0.295  0.000  0.000    7711.39   344.67     92.6 
     21  496.553   55.955  0.253  0.146  0.104    7681.00   319.80     70.8 
    127  563.061  294.562  0.757 -0.104 -0.024    7676.83   444.02     81.6 
     74   46.442  158.035  0.184  0.047  0.002    7579.67   285.65    100.2 
     80  557.721  173.865  0.281  0.000  0.000    7575.38   390.40     89.9 
    175  370.066  380.157  0.150  0.081 -0.024    7555.06   336.47     80.7 
    113  326.951  245.091  0.272  0.000  0.000    7494.17   331.85     67.4 
     98  466.802  216.864  0.273 -0.065 -0.243    7380.08   374.86     89.2 
     31  613.735   75.366  0.434  0.085  0.389    7362.83   454.18     84.5 
    110  282.678  242.327  0.208  0.000  0.000    7246.65   328.57     79.1 
     42  360.966   99.446  0.282  0.000  0.000    7238.03   311.47     66.9 
     86  153.043  183.117  0.122  0.011 -0.010    7095.10   297.37     91.1 
    203  302.038  432.721  0.243  0.000  0.000    6932.78   290.13     74.5 
    213  455.797  452.613  0.345  0.000  0.000    6839.72   314.91     87.9 
     10  633.954   20.269  0.321  0.000  0.000    6778.76   487.65     65.4 
    164   84.802  364.561  0.267  0.000  0.000    6757.97   337.10     81.2 
    202  281.468  430.093  0.375  0.000  0.000    6743.31   280.38     68.1 
     25  603.383   66.503 21.015  1.127 -1.995    6720.90   445.76     73.2 
     51  165.023  106.489  0.303  0.000  0.000    6709.00   328.35     80.3 
    199  647.305  419.868  0.859 -0.229 -0.232    6706.72   439.11     48.7 
    115  524.726  251.400  0.302 -0.058  0.132    6524.85   296.40     80.6 
     13  191.969   34.190  0.397  0.006 -0.007    6485.10   380.87     60.8 
    233  484.547  483.106  0.264  0.000  0.000    6424.48   360.00     81.3 
     27  377.573   70.955  0.386  0.000  0.000    6343.43   357.33     58.3 
     66    9.738  135.660  0.263  0.000  0.000    6338.70   341.00     75.0 
      2   73.165    8.208  0.265 -0.072 -0.201    6293.54   354.83     75.6 
    232  626.669  483.314  0.301  0.000  0.000    6274.28   302.81     94.4 
     29  415.757   75.746  0.276  0.000  0.000    6268.55   383.43     63.5 
     84  586.318  179.894  0.444  0.000  0.000    6232.06   335.30     68.6 
     68  266.035  136.976  0.299  0.000  0.000    6220.34   308.00     90.3 
    151  288.513  345.471 19.178  0.828  2.324    6116.38   390.41     86.5 
    227  324.745  478.529  0.287  0.101 -0.227    6094.26   311.49     83.0 
     33  335.037   78.604  0.196  0.000  0.000    5962.59   365.84     66.4 
    130  318.062  299.365  0.328  0.000  0.000    5925.47   321.19     61.7 
    192  537.040  405.860  0.234 -0.109 -0.063    5908.44   340.44     67.1 
    197  140.936  411.960  0.236  0.083 -0.030    5907.65   279.70     58.7 
    189  489.513  399.756  0.434  0.000  0.000    5862.93   310.86     78.5 
    159    6.263  354.141  0.274  0.000  0.000    5854.90   320.00     64.7 
    157  386.045  351.714  0.218 -0.034 -0.026    5735.15   289.49     76.8 
     45  242.504  100.611  0.414  0.000  0.000    5728.17   311.68     71.8 
    106  212.600  231.689  0.266  0.226 -0.016    5605.56   317.87     60.8 
      1  278.800    3.302  0.317  0.000  0.000    5593.95   368.00     58.3 
    225   48.815  474.986  0.313  0.000  0.000    5548.62   327.04     53.9 
    118  406.117  260.605  0.360  0.000  0.000    5546.97   331.13     49.6 
    176  155.818  384.912  0.402  0.000  0.000    5541.26   266.40     74.0 
    194  619.548  409.187  0.193  0.116 -0.037    5526.15   344.01     60.1 
     63  179.814  123.634  0.173  0.040  0.061    5507.82   318.41     66.1 
    138  240.642  326.426  0.387  0.000  0.000    5489.49   337.39     68.2 
    206  295.318  441.178  0.263  0.000  0.000    5463.17   346.91     53.8 
     15  240.311   40.164  0.307  0.000  0.000    5443.46   334.81     61.5 
     53  244.900  108.685  0.365  0.000  0.000    5346.74   331.83     62.1 
    155  541.839  350.067  0.404  0.119 -0.016    5342.77   362.76     55.0 
     79  483.929  172.078  0.262  0.000  0.000    5273.45   360.89     67.9 
    212  378.227  456.020  0.434 -0.133  0.323    5271.11   330.47     55.7 
     18  582.301   43.287  1.122 -1.078  0.086    5254.45   453.20     59.9 
    166  101.992  366.020  0.462  0.200  0.198    5116.39   291.41     46.9 
     12    3.052   31.471  0.358  0.000  0.000    5110.96   343.62     45.1 
    144  485.058  330.334  0.345  0.000  0.000    5029.79   317.09     56.1 
    122  380.600  269.161  0.361  0.158  0.141    4978.07   327.08     59.6 
    220   39.730  467.710  0.298  0.000  0.000    4967.90   325.76     46.9 
    124   41.314  275.327  0.222  0.000  0.000    4952.21   339.08     58.1 
    101  591.017  223.719  0.360  0.000  0.000    4928.46   353.92     64.1 
     65  639.234  123.569  0.531  0.000  0.000    4887.66   393.26     55.5 
    102  270.471  221.891  0.393  0.000  0.000    4842.93   359.68     51.8 
     73  624.385  147.608  0.373 -0.242  0.124    4795.87   385.69     62.3 
     34  556.598   75.665  0.426  0.000  0.000    4783.83   400.00     36.6 
    221  370.956  469.832  0.533 -0.365 -0.169    4762.92   311.49     54.6 
     94  204.318  194.577  0.160 -0.093  0.022    4728.00   315.58     65.4 
    107  636.833  239.070  0.237  0.000  0.000    4682.30   347.26     55.0 
    218  451.448  464.109  0.557 -0.519 -0.027    4674.17   337.58     55.6 
     39   48.470   88.024  0.313  0.000  0.000    4655.66   368.55     52.7 
     32  440.513   76.201  0.478  0.047 -0.290    4653.70   458.14     35.2 
     40  512.803   92.975  0.203  0.099 -0.054    4639.55   394.13     49.8 
    195  114.261  412.722  0.391  0.000  0.000    4487.41   330.67     49.4 
     64  220.574  122.642  0.220 -0.124 -0.027    4484.56   355.75     59.0 
    231  208.007  483.856  0.547  0.000  0.000    4451.00   308.87     49.0 
    112  429.360  244.630  0.097 -0.011  0.012    4427.27   354.59     48.5 
    211  319.184  453.379  0.306  0.101 -0.001    4423.35   351.42     55.0 
    135  562.295  311.806  0.521  0.000  0.000    4393.58   324.36     49.0 
    119  462.591  261.071  0.482  0.000  0.000    4348.78   320.00     57.1 
     30   87.015   75.288  0.446 -0.066 -0.272    4331.50   343.03     64.0 
    210  265.447  448.310  0.558 -0.103  0.474    4222.47   341.32     44.5 
    200  155.782  427.912  0.278  0.000  0.000    4221.80   331.52     45.7 
    217  263.242  464.139  0.231  0.025 -0.048    4212.77   318.34     47.1 
     23  636.097   62.630  0.282 -0.028  0.059    4197.44   443.77     46.4 
     58  258.195  114.854  0.504  0.000  0.000    4173.23   295.47     40.2 
     88  415.438  187.675  0.371 -0.125 -0.109    4128.35   338.58     51.0 
    228  259.320  484.450  0.576  0.000  0.000    4046.89   272.00     60.9 
    215  453.417  458.010  0.492  0.000  0.000    4044.74   312.38     46.6 
      6  486.921   18.391  0.393  0.000  0.000    3992.00   390.19     38.9 
    223  270.363  474.138  1.276 -0.481  0.021    3970.71   380.48     44.4 
     78  150.997  171.419  0.255  0.006  0.004    3929.77   325.88     45.5 
    186  621.592  397.778  0.417 -0.107  0.247    3827.19   348.26     46.2 
     91  336.871  190.527  0.190 -0.053  0.076    3822.27   369.68     36.2 
     43  600.094   98.208  0.500  0.146 -0.303    3803.15   414.49     47.6 
    193  313.859  407.959  0.585  0.414  0.078    3799.55   283.29     50.4 
    154  238.640  349.081  0.926 -0.617  0.583    3783.21   326.22     41.8 
      4  372.464   13.698  0.231  0.041 -0.168    3770.56   407.90     35.2 
    147  144.086  340.733  0.133  0.055 -0.052    3760.96   310.86     45.5 
     48  557.473  104.229  0.400 -0.249 -0.136    3749.42   403.71     46.9 
    207    4.962  446.737  0.281  0.010 -0.167    3742.15   333.95     40.7 
    117  515.991  255.761  0.391  0.018 -0.191    3735.16   359.26     52.9 
    165   55.718  365.196  0.388  0.000  0.000    3706.72   297.74     48.2 
    230  525.790  482.359  0.529  0.287  0.082    3698.54   319.01     35.9 
    114  593.548  251.853  0.408  0.000  0.000    3627.27   322.67     31.5 
    170    2.718  372.591  0.565  0.000  0.000    3622.99   327.04     36.2 
    123  297.471  271.013  0.259  0.022  0.096    3606.08   362.16     36.2 
    150  280.918  347.427  0.196  0.075 -0.040    3532.59   347.67     47.6 
      7  616.493   15.408  0.715  0.099  0.188    3512.53   510.42     29.9 
     49  566.965  107.359  0.377  0.179  0.221    3510.06   380.97     39.4 
    229  411.665  483.954  0.297  0.000  0.000    3488.33   307.37     30.9 
    152   52.588  347.584  0.226 -0.122 -0.137    3449.10   345.35     36.3 
    134  402.405  309.506  0.255  0.053 -0.085    3426.21   372.15     42.0 
      8  189.382   20.717  0.555 -0.339 -0.356    3394.10   392.45     41.6 
      5  515.052   14.778  0.466  0.000  0.000    3346.67   441.23     45.9 
    129  196.287  299.316  0.447  0.000  0.000    3306.93   290.29     34.9 
    208  228.644  447.390  0.480  0.241 -0.196    3296.65   348.06     34.6 
    108  237.807  234.914  0.571  0.000  0.000    3243.70   320.00     40.9 
    146  643.459  338.577  0.643  0.300 -0.350    3179.65   349.74     27.8 
    219  401.662  462.825  0.265  0.057  0.048    3146.37   340.78     44.1 
    222  420.660  469.660  0.546  0.000  0.000    3136.85   317.79     33.0 
    141   20.572  327.477  9.579  0.628 -0.679    3087.42   395.37     35.9 
    103  307.166  225.028  0.363  0.000  0.000    3077.10   357.33     35.6 
    190  201.448  403.397  0.426  0.000  0.000    3031.77   303.33     38.7 
    180  617.348  388.323  0.530  0.093  0.235    2942.13   356.74     29.0 
     38   28.377   82.773  0.429  0.000  0.000    2917.07   329.23     30.1 
    137  210.010  326.191  0.531 -0.098 -0.185    2861.21   334.25     47.3 
     70   91.941  141.189  0.435  0.157 -0.162    2751.48   363.56     32.3 
    160  500.477  355.441  0.312  0.205  0.104    2737.67   360.85     33.0 
     26  575.767   72.146  0.382 -0.147  0.049    2681.63   438.70     24.8 
     81   90.288  174.969  0.814  0.123  0.352    2659.84   362.28     46.7 
    145  609.623  336.501  0.528 -0.292  0.215    2633.06   342.75     31.3 
     77  613.533  169.410  0.369 -0.203 -0.047    2545.01   392.08     27.0 
     56  426.844  111.344  0.441 -0.056 -0.224    2537.23   401.35     34.5 
     36  541.078   79.598  0.639 -0.159 -0.458    2494.62   401.45     27.9 
    162    3.766  362.866  0.808  0.135  0.710    2482.61   365.03     28.3 
     50  149.352  106.498  0.331 -0.085  0.118    2471.62   385.52     27.6 
     54  519.916  109.250  0.464 -0.349  0.152    2433.18   438.67     24.7 
    109   51.528  238.133  0.825 -0.550  0.249    2430.11   368.16     28.8 
     16   34.318   40.821  0.622  0.278  0.139    2385.18   349.30     27.9 
     22    6.859   60.173  0.645 -0.400 -0.086    2338.39   374.92     23.0 
    174  169.589  380.105  0.512  0.255  0.091    2336.56   328.47     25.4 
    148  374.325  341.851  0.219  0.152 -0.046    2306.85   345.35     33.2 
     46  100.957  100.924  0.952  0.000  0.000    2269.43   266.11     32.9 
    139  407.479  328.439  0.649  0.084  0.401    2240.71   402.19     26.0 
    158  623.482  350.321  0.538  0.204 -0.207    2227.31   359.24     26.8 
     76  349.036  165.683  0.545 -0.342  0.015    2220.70   365.25     26.8 
    120  128.506  265.171  0.252  0.040 -0.108    2169.49   340.39     23.2 
     89  366.398  188.071  1.127  0.172 -0.229    2157.12   358.49     26.5 
    125  578.014  274.171  0.232  0.080 -0.042    2149.10   380.35     25.5 
     69  317.900  135.811  1.075  0.011  0.482    2131.40   371.76     31.7 
    163  455.174  362.300  0.604  0.248 -0.039    2091.76   352.68     26.9 
     47  611.720  100.128  0.398  0.160  0.172    2088.27   417.47     21.2 
    184  276.630  396.139  0.259 -0.015 -0.002    2084.13   336.70     22.1 
     60  451.662  117.340  0.320  0.040 -0.010    2053.93   392.99     25.9 
    126  424.087  281.475  0.557  0.118  0.113    2051.67   343.12     20.9 
    131  380.760  301.707  0.604  0.100  0.101    2025.18   376.21     23.8 
     41    9.853   96.400  0.725 -0.127 -0.327    1995.91   365.26     26.5 
    209  510.458  448.081  0.604 -0.442  0.248    1965.78   391.51     20.0 
     61  253.063  119.277  0.484 -0.025 -0.152    1961.75   360.78     23.9 
     20  549.136   55.010  0.471 -0.285  0.112    1951.62   464.47     19.3 
    224  566.874  474.100  0.415  0.114 -0.122    1947.32   364.18     31.6 
     90  141.426  190.235  0.994 -0.559 -0.198    1928.26   369.78     21.9 
    177   31.312  386.909  0.305 -0.065 -0.077    1927.67   324.58     28.2 
    226    3.342  475.451  0.912  0.427 -0.021    1859.76   375.16     25.1 
    153  182.277  349.624  0.735  0.432 -0.095    1836.77   363.82     25.9 
    171  111.528  377.535  0.557  0.209 -0.121    1836.64   374.50     19.8 
    167  234.680  368.685  1.388  0.483  0.539    1775.04   344.63     26.1 
     96  484.392  198.681  1.009  0.643  0.095    1737.17   396.67     29.1 
    201  161.888  431.009  0.815 -0.239  0.313    1731.64   377.07     18.0 
     97   13.196  205.479  0.962  0.072 -0.248    1719.94   404.63     20.2 
     55  378.029  109.961  0.807 -0.124  0.230    1717.64   387.02     24.7 
     87  234.883  183.936  0.399 -0.150 -0.206    1675.81   372.13     21.7 
    187  394.410  399.177  0.657  0.090  0.110    1623.56   343.78     23.1 
     75  448.574  161.907  0.653  0.205  0.106    1534.66   402.05     17.6 
     17  364.944   39.639  0.934  0.335 -0.558    1504.34   400.74     16.3 
    188  446.333  399.387  2.134 -0.713  0.743    1474.50   390.32     15.5 
    204  549.086  438.897  0.905 -0.378  0.139    1437.96   385.87     16.8 
    136  263.726  321.556  1.257  0.072 -0.263    1406.59   360.77     16.5 
     14  482.098   36.176  0.384 -0.153  0.194    1400.86   444.17     15.8 
    172  479.872  375.331  0.727 -0.129  0.325    1351.18   383.85     16.2 
     28   11.531   71.434  1.285 -0.682  0.188    1334.40   378.11     17.9 
     99  510.011  218.468  1.476 -0.654  0.432    1288.70   426.18     14.7 
     83  294.182  177.835  0.897  0.346  0.223    1283.15   375.79     14.2 
    198   29.894  418.014  2.339  1.566 -0.004    1281.19   392.82     14.8 
     59  435.079  119.631  0.207 -0.026 -0.054    1250.91   424.60     17.0 
     72  207.728  143.865  1.519 -0.373  1.269    1119.69   374.92     11.4 
    128  226.593  298.744  0.247 -0.035  0.095    1089.56   370.01     12.1 
     62  629.971  122.896  0.324 -0.217 -0.088    1012.23   414.84      8.7 
    178  213.882  387.579  1.511  0.199 -0.261     938.66   392.83     13.4 
    168  525.167  373.633  0.422  0.132  0.051     917.05   389.43     12.1 
     67  189.528  136.753  0.890 -0.238 -0.622     861.32   389.78     11.2 
     35  566.627   77.986  3.757 -1.197 -2.561     514.65   472.31      7.1 
     82  211.890  172.685  0.307  0.084  0.120     425.65   388.01      6.0 
     85  549.142  181.702  3.398 -0.447  1.180     404.00   421.35      4.1 
    185  405.959  401.146 18.526 -15.988 -0.336     165.85   385.29      1.8 
