# WAVELENGTH_UNIT	AA
# COMPNAME       	HST_NIC3_F215N
# NAME           	HST_NIC3_F215N
# DETECTOR       	photon
#
## WAVELENGTH	None	AA
## THROUGHPUT	None	filter throughput definition
#
WAVELENGTH,THROUGHPUT
20497.998047,0.000000
20498.000000,-0.003707
20500.000000,-0.002998
20502.000000,0.000687
20504.000000,0.001080
20506.000000,0.001025
20508.000000,-0.000002
20510.000000,-0.000501
20512.000000,0.002550
20514.000000,0.001595
20516.000000,-0.001650
20518.000000,-0.001879
20520.000000,0.000226
20522.000000,-0.002216
20524.000000,-0.003209
20526.000000,-0.003093
20528.000000,-0.002412
20530.000000,-0.000174
20532.000000,-0.000971
20534.000000,0.000392
20536.000000,-0.000456
20538.000000,-0.001888
20540.000000,-0.003083
20542.000000,-0.001837
20544.000000,-0.000984
20546.000000,-0.002563
20548.000000,-0.001032
20550.000000,-0.000804
20552.000000,-0.002765
20554.000000,-0.001668
20556.000000,0.003675
20558.000000,0.000515
20560.000000,-0.003622
20562.000000,-0.000290
20564.000000,-0.001326
20566.000000,-0.001214
20568.000000,-0.001561
20570.000000,0.003260
20572.000000,0.002247
20574.000000,0.000345
20576.000000,0.000925
20578.000000,0.001383
20580.000000,0.001212
20582.000000,0.001778
20584.000000,-0.002553
20586.000000,0.000687
20588.000000,-0.002257
20590.000000,-0.001387
20592.000000,-0.002035
20594.000000,-0.000641
20596.000000,-0.004375
20598.000000,-0.002593
20600.000000,-0.000525
20602.000000,-0.001849
20604.000000,-0.001916
20606.000000,0.000350
20608.000000,0.001966
20610.000000,0.001268
20612.000000,-0.001048
20614.000000,-0.000349
20616.000000,0.000524
20618.000000,0.000343
20620.000000,-0.004365
20622.000000,0.000231
20624.000000,-0.000125
20626.000000,-0.004914
20628.000000,0.000933
20630.000000,-0.000291
20632.000000,0.001567
20634.000000,-0.000993
20636.000000,0.000879
20638.000000,-0.001872
20640.000000,0.000513
20642.000000,-0.001756
20644.000000,-0.000353
20646.000000,0.001758
20648.000000,0.000062
20650.000000,0.002130
20652.000000,-0.002937
20654.000000,0.000529
20656.000000,0.003327
20658.000000,-0.001351
20660.000000,-0.004382
20662.000000,-0.000875
20664.000000,0.002168
20666.000000,-0.001414
20668.000000,-0.000173
20670.000000,-0.000117
20672.000000,0.000054
20674.000000,-0.002667
20676.000000,-0.000355
20678.000000,-0.001592
20680.000000,-0.000288
20682.000000,0.000331
20684.000000,-0.006182
20686.000000,0.000232
20688.000000,-0.000663
20690.000000,0.000052
20692.000000,-0.002135
20694.000000,-0.002135
20696.000000,-0.001058
20698.000000,-0.001538
20700.000000,0.001064
20702.000000,0.000706
20704.000000,-0.001724
20706.000000,0.000001
20708.000000,0.000535
20710.000000,-0.000835
20712.000000,-0.001955
20714.000000,0.000890
20716.000000,0.000060
20718.000000,0.000772
20720.000000,-0.000896
20722.000000,-0.001606
20724.000000,-0.001430
20726.000000,-0.000369
20728.000000,0.003720
20730.000000,-0.000187
20732.000000,-0.001968
20734.000000,-0.001783
20736.000000,-0.001551
20738.000000,-0.001375
20740.000000,-0.001728
20742.000000,-0.000360
20744.000000,-0.001197
20746.000000,-0.001557
20748.000000,-0.001381
20750.000000,0.001784
20752.000000,0.002207
20754.000000,0.001860
20756.000000,-0.003055
20758.000000,-0.000539
20760.000000,0.002134
20762.000000,-0.001627
20764.000000,-0.003068
20766.000000,-0.000350
20768.000000,-0.003030
20770.000000,0.000340
20772.000000,-0.003418
20774.000000,-0.000360
20776.000000,-0.004112
20778.000000,-0.000658
20780.000000,0.001252
20782.000000,-0.001077
20784.000000,0.002344
20786.000000,-0.001625
20788.000000,-0.002847
20790.000000,0.005398
20792.000000,-0.001086
20794.000000,-0.001388
20796.000000,-0.002720
20798.000000,-0.001391
20800.000000,-0.000741
20802.000000,-0.003801
20804.000000,0.001327
20806.000000,0.001634
20808.000000,0.000726
20810.000000,-0.001572
20812.000000,-0.000544
20814.000000,0.000363
20816.000000,-0.001401
20818.000000,-0.000134
20820.000000,-0.002344
20822.000000,0.000603
20824.000000,0.000176
20826.000000,-0.006215
20828.000000,-0.002309
20830.000000,-0.001964
20832.000000,-0.000005
20834.000000,-0.001098
20836.000000,-0.001025
20838.000000,-0.003255
20840.000000,-0.002670
20842.000000,0.000361
20844.000000,-0.001037
20846.000000,-0.001089
20848.000000,0.000365
20850.000000,0.000180
20852.000000,-0.001228
20854.000000,0.000183
20856.000000,-0.001595
20858.000000,-0.000310
20860.000000,-0.003068
20862.000000,-0.002754
20864.000000,0.000545
20866.000000,0.002366
20868.000000,0.000546
20870.000000,-0.001839
20872.000000,-0.000921
20874.000000,-0.001416
20876.000000,-0.003081
20878.000000,-0.001280
20880.000000,-0.002377
20882.000000,0.001349
20884.000000,0.003276
20886.000000,0.001347
20888.000000,-0.003329
20890.000000,-0.002171
20892.000000,-0.002896
20894.000000,-0.001478
20896.000000,0.002931
20898.000000,-0.002343
20900.000000,-0.001658
20902.000000,-0.000193
20904.000000,-0.002037
20906.000000,0.003837
20908.000000,-0.002961
20910.000000,-0.002009
20912.000000,0.004207
20914.000000,-0.000920
20916.000000,-0.000504
20918.000000,-0.002177
20920.000000,-0.000020
20922.000000,-0.002960
20924.000000,0.001114
20926.000000,-0.000744
20928.000000,-0.000558
20930.000000,-0.000564
20932.000000,-0.001489
20934.000000,-0.001808
20936.000000,0.001105
20938.000000,0.001298
20940.000000,-0.002413
20942.000000,-0.000554
20944.000000,0.000426
20946.000000,0.001489
20948.000000,0.000060
20950.000000,-0.001130
20952.000000,-0.003864
20954.000000,-0.000877
20956.000000,0.003556
20958.000000,-0.001441
20960.000000,-0.000317
20962.000000,-0.000321
20964.000000,0.000989
20966.000000,-0.001684
20968.000000,0.001122
20970.000000,-0.001250
20972.000000,-0.000567
20974.000000,-0.002059
20976.000000,-0.002432
20978.000000,0.000189
20980.000000,0.000230
20982.000000,-0.001827
20984.000000,-0.001509
20986.000000,-0.000128
20988.000000,0.000374
20990.000000,-0.001680
20992.000000,-0.000322
20994.000000,-0.004142
20996.000000,0.002994
20998.000000,-0.000379
21000.000000,-0.001698
21002.000000,-0.003529
21004.000000,-0.001886
21006.000000,0.002798
21008.000000,0.001374
21010.000000,-0.001686
21012.000000,0.000564
21014.000000,0.001320
21016.000000,0.002070
21018.000000,-0.002217
21020.000000,0.000382
21022.000000,0.001685
21024.000000,-0.001644
21026.000000,-0.000370
21028.000000,-0.002592
21030.000000,-0.000371
21032.000000,0.001002
21034.000000,-0.000379
21036.000000,-0.001080
21038.000000,-0.002254
21040.000000,-0.000575
21042.000000,-0.000953
21044.000000,-0.002286
21046.000000,-0.001269
21048.000000,0.000377
21050.000000,-0.002258
21052.000000,-0.005114
21054.000000,-0.002091
21056.000000,0.002082
21058.000000,0.002085
21060.000000,-0.000883
21062.000000,0.001566
21064.000000,-0.000575
21066.000000,0.000250
21068.000000,-0.001898
21070.000000,0.000601
21072.000000,-0.003565
21074.000000,-0.001713
21076.000000,0.001381
21078.000000,-0.001659
21080.000000,-0.001711
21082.000000,0.000055
21084.000000,-0.000709
21086.000000,0.002298
21088.000000,-0.001093
21090.000000,-0.002084
21092.000000,0.000949
21094.000000,-0.002497
21096.000000,-0.001281
21098.000000,-0.002295
21100.000000,-0.000568
21102.000000,0.000771
21104.000000,0.002292
21106.000000,-0.003650
21108.000000,-0.002505
21110.000000,-0.001092
21112.000000,0.000763
21114.000000,-0.000773
21116.000000,0.001730
21118.000000,-0.004012
21120.000000,-0.001472
21122.000000,0.001412
21124.000000,0.002681
21126.000000,-0.002686
21128.000000,0.000440
21130.000000,-0.000961
21132.000000,-0.001727
21134.000000,0.002939
21136.000000,-0.004252
21138.000000,-0.000577
21140.000000,0.003319
21142.000000,-0.000580
21144.000000,-0.000719
21146.000000,0.002306
21148.000000,-0.002331
21150.000000,-0.000581
21152.000000,-0.000926
21154.000000,-0.005631
21156.000000,-0.000134
21158.000000,-0.000972
21160.000000,0.000766
21162.000000,-0.000778
21164.000000,0.000391
21166.000000,0.001743
21168.000000,0.001357
21170.000000,-0.002280
21172.000000,-0.002926
21174.000000,0.000058
21176.000000,-0.002536
21178.000000,-0.000976
21180.000000,-0.000922
21182.000000,-0.001756
21184.000000,0.001555
21186.000000,0.003102
21188.000000,-0.000732
21190.000000,-0.001969
21192.000000,-0.003701
21194.000000,-0.000976
21196.000000,-0.000580
21198.000000,-0.001712
21200.000000,0.001227
21202.000000,-0.000766
21204.000000,0.001158
21206.000000,-0.006081
21208.000000,-0.002302
21210.000000,0.000056
21212.000000,0.000446
21214.000000,-0.001175
21216.000000,0.000007
21218.000000,-0.003101
21220.000000,0.001615
21222.000000,0.000458
21224.000000,0.002542
21226.000000,0.005899
21228.000000,-0.002943
21230.000000,0.000795
21232.000000,0.002606
21234.000000,0.000846
21236.000000,-0.003913
21238.000000,0.000647
21240.000000,-0.000918
21242.000000,0.001173
21244.000000,-0.003155
21246.000000,0.002569
21248.000000,0.000201
21250.000000,-0.002518
21252.000000,-0.002741
21254.000000,0.002378
21256.000000,-0.000144
21258.000000,0.000449
21260.000000,-0.000571
21262.000000,0.001987
21264.000000,0.002180
21266.000000,-0.001183
21268.000000,0.001394
21270.000000,0.001848
21272.000000,0.002189
21274.000000,0.002187
21276.000000,0.001795
21278.000000,0.002192
21280.000000,-0.000779
21282.000000,0.000866
21284.000000,0.001404
21286.000000,0.007177
21288.000000,0.003404
21290.000000,0.001272
21292.000000,0.004021
21294.000000,0.000422
21296.000000,0.003423
21298.000000,0.008041
21300.000000,0.007281
21302.000000,0.003240
21304.000000,0.006902
21306.000000,0.007884
21308.000000,0.009043
21310.000000,0.006467
21312.000000,0.008494
21314.000000,0.011484
21316.000000,0.005497
21318.000000,0.009306
21320.000000,0.010618
21322.000000,0.013223
21324.000000,0.016187
21326.000000,0.011254
21328.000000,0.014455
21330.000000,0.020063
21332.000000,0.019619
21334.000000,0.024155
21336.000000,0.022665
21338.000000,0.023689
21340.000000,0.028982
21342.000000,0.029219
21344.000000,0.034261
21346.000000,0.038970
21348.000000,0.042160
21350.000000,0.047406
21352.000000,0.052123
21354.000000,0.062162
21356.000000,0.067772
21358.000000,0.074800
21360.000000,0.079908
21362.000000,0.092136
21364.000000,0.103678
21366.000000,0.113980
21368.000000,0.127086
21370.000000,0.145655
21372.000000,0.160257
21374.000000,0.175662
21376.000000,0.202795
21378.000000,0.218728
21380.000000,0.247419
21382.000000,0.269868
21384.000000,0.302861
21386.000000,0.329167
21388.000000,0.361198
21390.000000,0.391271
21392.000000,0.424848
21394.000000,0.454166
21396.000000,0.486289
21398.000000,0.513369
21400.000000,0.539037
21402.000000,0.562611
21404.000000,0.584452
21406.000000,0.605793
21408.000000,0.617879
21410.000000,0.632315
21412.000000,0.638507
21414.000000,0.644990
21416.000000,0.650021
21418.000000,0.650827
21420.000000,0.650126
21422.000000,0.650067
21424.000000,0.649178
21426.000000,0.644934
21428.000000,0.642587
21430.000000,0.638481
21432.000000,0.635628
21434.000000,0.637140
21436.000000,0.630290
21438.000000,0.628680
21440.000000,0.627315
21442.000000,0.625870
21444.000000,0.624778
21446.000000,0.623082
21448.000000,0.626053
21450.000000,0.622768
21452.000000,0.629046
21454.000000,0.626192
21456.000000,0.628434
21458.000000,0.635204
21460.000000,0.633660
21462.000000,0.632496
21464.000000,0.632851
21466.000000,0.636382
21468.000000,0.636132
21470.000000,0.635760
21472.000000,0.638935
21474.000000,0.635623
21476.000000,0.641762
21478.000000,0.638656
21480.000000,0.637254
21482.000000,0.636157
21484.000000,0.634628
21486.000000,0.631493
21488.000000,0.629965
21490.000000,0.624966
21492.000000,0.620620
21494.000000,0.617689
21496.000000,0.611359
21498.000000,0.608566
21500.000000,0.602001
21502.000000,0.599799
21504.000000,0.592463
21506.000000,0.588974
21508.000000,0.583460
21510.000000,0.580425
21512.000000,0.575345
21514.000000,0.570369
21516.000000,0.568189
21518.000000,0.564956
21520.000000,0.559568
21522.000000,0.557549
21524.000000,0.560624
21526.000000,0.559116
21528.000000,0.559448
21530.000000,0.562213
21532.000000,0.568081
21534.000000,0.568541
21536.000000,0.573322
21538.000000,0.576055
21540.000000,0.583103
21542.000000,0.590314
21544.000000,0.598414
21546.000000,0.604010
21548.000000,0.610601
21550.000000,0.622171
21552.000000,0.629656
21554.000000,0.634609
21556.000000,0.643208
21558.000000,0.648061
21560.000000,0.648061
21562.000000,0.650879
21564.000000,0.645458
21566.000000,0.637145
21568.000000,0.629857
21570.000000,0.611377
21572.000000,0.594743
21574.000000,0.570770
21576.000000,0.544441
21578.000000,0.508997
21580.000000,0.481155
21582.000000,0.442405
21584.000000,0.411354
21586.000000,0.372276
21588.000000,0.341303
21590.000000,0.306331
21592.000000,0.277459
21594.000000,0.250535
21596.000000,0.221424
21598.000000,0.200707
21600.000000,0.173860
21602.000000,0.158678
21604.000000,0.138820
21606.000000,0.125634
21608.000000,0.109028
21610.000000,0.097129
21612.000000,0.087109
21614.000000,0.077438
21616.000000,0.067151
21618.000000,0.063036
21620.000000,0.056324
21622.000000,0.050666
21624.000000,0.046884
21626.000000,0.041320
21628.000000,0.037466
21630.000000,0.032245
21632.000000,0.028928
21634.000000,0.024092
21636.000000,0.024851
21638.000000,0.017938
21640.000000,0.017694
21642.000000,0.019039
21644.000000,0.020998
21646.000000,0.013872
21648.000000,0.014262
21650.000000,0.012770
21652.000000,0.012126
21654.000000,0.010186
21656.000000,0.007431
21658.000000,0.003665
21660.000000,0.010752
21662.000000,0.006782
21664.000000,0.008879
21666.000000,0.006430
21668.000000,0.009266
21670.000000,0.005073
21672.000000,0.006780
21674.000000,0.007157
21676.000000,0.004245
21678.000000,0.005761
21680.000000,0.007657
21682.000000,0.004647
21684.000000,0.002748
21686.000000,0.004437
21688.000000,0.005121
21690.000000,0.001332
21692.000000,0.001741
21694.000000,0.000631
21696.000000,0.001686
21698.000000,0.003160
21700.000000,0.003122
21702.000000,0.000001
21704.000000,0.000211
21706.000000,0.000212
21708.000000,0.001260
21710.000000,0.003350
21712.000000,0.002999
21714.000000,0.004624
21716.000000,0.003161
21718.000000,0.003745
21720.000000,-0.000622
21722.000000,0.001043
21724.000000,0.000204
21726.000000,0.000840
21728.000000,0.002155
21730.000000,-0.000395
21732.000000,0.003552
21734.000000,0.001107
21736.000000,-0.000220
21738.000000,-0.004621
21740.000000,-0.002493
21742.000000,-0.000623
21744.000000,0.001518
21746.000000,0.002092
21748.000000,-0.001475
21750.000000,-0.005489
21752.000000,-0.003993
21754.000000,0.003116
21756.000000,0.002472
21758.000000,0.006376
21760.000000,0.000210
21762.000000,0.000270
21764.000000,0.001458
21766.000000,0.000822
21768.000000,-0.003134
21770.000000,-0.000778
21772.000000,-0.000361
21774.000000,-0.001672
21776.000000,0.000481
21778.000000,0.005761
21780.000000,-0.003727
21782.000000,0.000197
21784.000000,-0.000152
21786.000000,-0.000625
21788.000000,-0.000564
21790.000000,-0.001665
21792.000000,0.001454
21794.000000,-0.000571
21796.000000,0.001035
21798.000000,0.001031
21800.000000,0.000410
21802.000000,0.000202
21804.000000,0.000403
21806.000000,0.000854
21808.000000,0.001754
21810.000000,0.000003
21812.000000,0.001133
21814.000000,-0.001319
21816.000000,-0.000561
21818.000000,-0.000732
21820.000000,-0.002357
21822.000000,-0.001594
21824.000000,0.002807
21826.000000,-0.000001
21828.000000,-0.000346
21830.000000,-0.001170
21832.000000,0.002848
21834.000000,-0.001792
21836.000000,0.000331
21838.000000,-0.002310
21840.000000,0.000324
21842.000000,-0.000162
21844.000000,0.000964
21846.000000,-0.003051
21848.000000,0.004575
21850.000000,-0.000628
21852.000000,0.001095
21854.000000,-0.002451
21856.000000,-0.000629
21858.000000,-0.001402
21860.000000,-0.001858
21862.000000,-0.000615
21864.000000,0.000613
21866.000000,0.001062
21868.000000,-0.000761
21870.000000,-0.001204
21872.000000,0.001583
21874.000000,0.000605
21876.000000,-0.000598
21878.000000,-0.001290
21880.000000,0.000316
21882.000000,0.003266
21884.000000,-0.000449
21886.000000,-0.000746
21888.000000,0.000666
21890.000000,-0.001617
21892.000000,0.001545
21894.000000,0.000587
21896.000000,0.000741
21898.000000,-0.001117
21900.000000,-0.000002
21902.000000,-0.000143
21904.000000,0.001686
21906.000000,-0.001479
21908.000000,-0.000885
21910.000000,0.000796
21912.000000,-0.000378
21914.000000,0.000588
21916.000000,-0.002499
21918.000000,-0.002955
21920.000000,0.000585
21922.000000,-0.000732
21924.000000,0.002258
21926.000000,-0.001174
21928.000000,-0.000444
21930.000000,-0.000367
21932.000000,0.001689
21934.000000,-0.000443
21936.000000,-0.000448
21938.000000,-0.002221
21940.000000,-0.002608
21942.000000,-0.000596
21944.000000,-0.000974
21946.000000,-0.002230
21948.000000,-0.000083
21950.000000,0.002196
21952.000000,-0.002681
21954.000000,-0.000235
21956.000000,-0.001128
21958.000000,-0.001498
21960.000000,-0.000756
21962.000000,-0.001498
21964.000000,-0.001296
21966.000000,0.000217
21968.000000,-0.000383
21970.000000,-0.001805
21972.000000,0.000446
21974.000000,-0.002207
21976.000000,0.001278
21978.000000,0.001360
21980.000000,0.000303
21982.000000,0.000913
21984.000000,0.001067
21986.000000,-0.000236
21988.000000,-0.001999
21990.000000,0.002662
21992.000000,-0.000156
21994.000000,-0.000311
21996.000000,0.001081
21998.000000,-0.002179
22000.000000,-0.001193
22002.000000,-0.003044
22004.000000,0.001088
22006.000000,-0.000941
22008.000000,-0.001100
22010.000000,-0.002664
22012.000000,-0.001039
22014.000000,-0.003632
22016.000000,-0.000160
22018.000000,0.002675
22020.000000,0.000539
22022.000000,-0.000324
22024.000000,-0.002072
22026.000000,-0.002015
22028.000000,-0.001694
22030.000000,0.000542
22032.000000,-0.002547
22034.000000,-0.000648
22036.000000,-0.001289
22038.000000,-0.000486
22040.000000,-0.000163
22042.000000,-0.001237
22044.000000,0.001852
22046.000000,-0.002228
22048.000000,-0.000266
22050.000000,0.003297
22052.000000,-0.001496
22054.000000,-0.003452
22056.000000,-0.000991
22058.000000,-0.000103
22060.000000,0.001623
22062.000000,-0.003512
22064.000000,-0.002501
22066.000000,-0.000502
22068.000000,0.001839
22070.000000,-0.000170
22072.000000,-0.000342
22074.000000,-0.004052
22076.000000,0.000073
22078.000000,-0.001002
22080.000000,0.004523
22082.000000,0.001863
22084.000000,-0.000461
22086.000000,0.000675
22088.000000,-0.002919
22090.000000,0.000338
22092.000000,-0.000965
22094.000000,0.000513
22096.000000,-0.001908
22098.000000,-0.000630
22100.000000,0.000222
22102.000000,-0.002554
22104.000000,0.001106
22106.000000,-0.001233
22108.000000,-0.001409
22110.000000,0.000542
22112.000000,0.003146
22114.000000,0.000707
22116.000000,-0.001242
22118.000000,-0.000470
22120.000000,0.000016
22122.000000,0.003373
22124.000000,-0.000721
22126.000000,0.000894
22128.000000,0.002154
22130.000000,0.000764
22132.000000,0.000166
22134.000000,-0.003409
22136.000000,-0.001279
22138.000000,0.001276
22140.000000,-0.005985
22142.000000,-0.001655
22144.000000,-0.002396
22146.000000,-0.001597
22148.000000,-0.000863
22150.000000,-0.001783
22152.000000,-0.000127
22154.000000,-0.004071
22156.000000,-0.002976
22158.000000,0.001672
22160.000000,0.002420
22162.000000,0.003162
22164.000000,0.003968
22166.000000,0.001371
22168.000000,0.001181
22170.000000,-0.000127
22172.000000,0.000173
22174.000000,-0.001702
22176.000000,-0.001655
22178.000000,-0.003266
22180.000000,-0.001155
22182.000000,-0.002284
22184.000000,-0.000733
22186.000000,-0.000575
22188.000000,-0.002257
22190.000000,0.000966
22192.000000,0.001595
22194.000000,-0.000721
22196.000000,0.000450
22198.000000,0.000256
22200.000000,0.001156
22202.000000,-0.000586
22204.000000,-0.001181
22206.000000,-0.003913
22208.000000,0.001047
22210.000000,-0.002118
22212.000000,-0.000931
22214.000000,-0.000195
22216.000000,-0.000002
22218.000000,0.001187
22220.000000,-0.000969
22222.000000,0.004172
22224.000000,-0.002157
22226.000000,0.000187
22228.000000,-0.004413
22230.000000,0.000398
22232.000000,-0.000746
22234.000000,0.001261
22236.000000,-0.000149
22238.000000,-0.002031
22240.000000,-0.002829
22242.000000,0.001211
22244.000000,-0.002035
22246.000000,0.001635
22248.000000,-0.002620
22250.000000,0.001632
22252.000000,-0.002002
22254.000000,-0.000354
22256.000000,-0.002446
22258.000000,-0.000149
22260.000000,0.000009
22262.000000,0.002488
22264.000000,-0.000627
22266.000000,-0.000627
22268.000000,-0.002044
22270.000000,-0.000011
22272.000000,-0.001621
22274.000000,-0.000859
22276.000000,0.000213
22278.000000,-0.000636
22280.000000,0.001045
22282.000000,-0.001283
22284.000000,-0.001077
22286.000000,-0.000643
22288.000000,-0.002794
22290.000000,-0.003596
22292.000000,-0.000646
22294.000000,-0.001024
22296.000000,0.004679
22298.000000,-0.000377
22300.000000,-0.000222
22302.000000,0.001284
22304.000000,-0.001921
22306.000000,-0.001968
22308.000000,0.001523
22310.000000,-0.000824
22312.000000,-0.000390
22314.000000,0.002249
22316.000000,-0.002590
22318.000000,-0.001266
22320.000000,-0.000455
22322.000000,-0.001109
22324.000000,0.001775
22326.000000,-0.000239
22328.000000,-0.004489
22330.000000,0.000860
22332.000000,0.000219
22334.000000,-0.000676
22336.000000,-0.004293
22338.000000,0.000677
22340.000000,0.004008
22342.000000,0.000219
22344.000000,-0.002895
22346.000000,-0.001820
22348.000000,-0.000910
22350.000000,0.002904
22352.000000,-0.001146
22354.000000,-0.000228
22356.000000,-0.000169
22358.000000,0.000907
22360.000000,-0.000183
22362.000000,-0.000647
22364.000000,0.001201
22366.000000,0.000228
22368.000000,0.002082
22370.000000,-0.000166
22372.000000,0.002324
22374.000000,0.001392
22376.000000,0.000224
22378.000000,0.000463
22380.000000,0.001680
22382.000000,-0.001424
22384.000000,-0.002309
22386.000000,-0.001654
22388.000000,0.000234
22390.000000,-0.001462
22392.000000,-0.005480
22394.000000,-0.002161
22396.000000,-0.004315
22398.000000,-0.002644
22400.000000,0.002129
22402.000000,-0.000204
22404.000000,-0.004809
22406.000000,0.001447
22408.000000,0.000772
22410.000000,0.000056
22412.000000,0.000962
22414.000000,-0.003920
22416.000000,0.000302
22418.000000,-0.000258
22420.000000,0.001998
22422.000000,-0.003910
22424.000000,0.000293
22426.000000,0.002939
22428.000000,0.000990
22430.000000,0.000768
22432.000000,-0.001997
22434.000000,-0.001968
22436.000000,0.003012
22438.000000,-0.003028
22440.000000,-0.002484
22442.000000,0.000275
22444.000000,-0.003260
22446.000000,-0.003275
22448.000000,-0.002718
22450.000000,-0.001997
22452.000000,0.001054
22454.000000,-0.001206
22456.000000,0.002546
22458.000000,0.005886
22460.000000,-0.006946
22462.000000,-0.005373
22464.000000,-0.000772
22466.000000,-0.000777
22468.000000,0.000261
22470.000000,0.004082
22472.000000,-0.003142
22474.000000,-0.001040
22476.000000,0.001839
22478.000000,0.003391
22480.000000,0.002345
22482.000000,-0.001823
22484.000000,-0.004980
22486.000000,-0.000793
22488.000000,0.002878
22490.000000,-0.004260
22492.000000,-0.004480
22494.000000,0.000593
22496.000000,-0.002421
22498.000000,-0.000752
22500.000000,-0.001095
22500.001953,0.000000
