# WAVELENGTH_UNIT	AA
# COMPNAME       	HST_NIC3_F166N
# NAME           	HST_NIC3_F166N
# DETECTOR       	photon
#
## WAVELENGTH	None	AA
## THROUGHPUT	None	filter throughput definition
#
WAVELENGTH,THROUGHPUT
15997.999023,0.000000
15998.000000,0.000000
16000.000000,0.000301
16002.000000,0.000361
16004.000000,-0.000669
16006.000000,0.000440
16008.000000,0.000016
16010.000000,-0.000849
16012.000000,0.000243
16014.000000,0.000319
16016.000000,-0.000427
16018.000000,-0.000915
16020.000000,-0.000124
16022.000000,0.000182
16024.000000,0.000119
16026.000000,0.000304
16028.000000,0.000670
16030.000000,0.000241
16032.000000,-0.000429
16034.000000,0.000260
16036.000000,-0.000001
16038.000000,0.000060
16040.000000,-0.000184
16042.000000,0.000139
16044.000000,0.000059
16046.000000,-0.000551
16048.000000,0.000244
16050.000000,-0.000121
16052.000000,0.000976
16054.000000,-0.000676
16056.000000,0.000000
16058.000000,0.000675
16060.000000,0.000201
16062.000000,0.000244
16064.000000,-0.000601
16066.000000,-0.000247
16068.000000,-0.000125
16070.000000,-0.000046
16072.000000,0.000324
16074.000000,0.000510
16076.000000,-0.000994
16078.000000,-0.000683
16080.000000,0.000076
16082.000000,-0.000295
16084.000000,-0.001305
16086.000000,-0.000191
16088.000000,-0.002050
16090.000000,-0.000423
16092.000000,0.000201
16094.000000,0.000683
16096.000000,0.000122
16098.000000,0.000139
16100.000000,-0.001307
16102.000000,0.000388
16104.000000,-0.000877
16106.000000,-0.001749
16108.000000,0.000264
16110.000000,-0.000124
16112.000000,0.000264
16114.000000,0.000263
16116.000000,0.000125
16118.000000,-0.000549
16120.000000,-0.000255
16122.000000,-0.001067
16124.000000,-0.000506
16126.000000,-0.000740
16128.000000,-0.000316
16130.000000,-0.001695
16132.000000,0.000062
16134.000000,-0.000176
16136.000000,-0.000192
16138.000000,-0.000805
16140.000000,-0.001200
16142.000000,-0.000696
16144.000000,0.000060
16146.000000,-0.000302
16148.000000,0.000265
16150.000000,-0.000380
16152.000000,-0.000066
16154.000000,-0.000509
16156.000000,-0.001144
16158.000000,-0.001778
16160.000000,0.000694
16162.000000,0.000313
16164.000000,-0.000320
16166.000000,-0.000001
16168.000000,-0.000509
16170.000000,0.000078
16172.000000,0.000269
16174.000000,0.000762
16176.000000,-0.000113
16178.000000,0.001080
16180.000000,0.000254
16182.000000,0.000012
16184.000000,-0.000833
16186.000000,-0.000831
16188.000000,0.000188
16190.000000,-0.000318
16192.000000,0.000957
16194.000000,0.000320
16196.000000,-0.000755
16198.000000,-0.000051
16200.000000,0.000139
16202.000000,-0.000114
16204.000000,0.000768
16206.000000,0.000513
16208.000000,0.000908
16210.000000,-0.000001
16212.000000,-0.000132
16214.000000,-0.001228
16216.000000,-0.002259
16218.000000,-0.001357
16220.000000,0.000317
16222.000000,-0.000777
16224.000000,-0.000391
16226.000000,0.000256
16228.000000,-0.000584
16230.000000,-0.000193
16232.000000,0.000141
16234.000000,0.000517
16236.000000,-0.000715
16238.000000,0.000064
16240.000000,0.000707
16242.000000,-0.000716
16244.000000,-0.000067
16246.000000,-0.000131
16248.000000,0.000012
16250.000000,-0.000197
16252.000000,-0.000392
16254.000000,-0.000524
16256.000000,0.000457
16258.000000,0.001039
16260.000000,0.000326
16262.000000,0.000651
16264.000000,-0.000184
16266.000000,-0.000065
16268.000000,0.000195
16270.000000,0.000388
16272.000000,-0.000656
16274.000000,0.000327
16276.000000,0.000128
16278.000000,-0.000053
16280.000000,-0.000525
16282.000000,-0.000053
16284.000000,-0.000397
16286.000000,0.000196
16288.000000,0.001260
16290.000000,0.000788
16292.000000,0.000328
16294.000000,-0.000463
16296.000000,-0.000002
16298.000000,0.000198
16300.000000,-0.000133
16302.000000,-0.000332
16304.000000,-0.000068
16306.000000,0.000591
16308.000000,0.000739
16310.000000,0.000266
16312.000000,0.000938
16314.000000,0.000675
16316.000000,-0.001398
16318.000000,-0.000334
16320.000000,-0.002192
16322.000000,0.000211
16324.000000,0.000942
16326.000000,0.001601
16328.000000,0.000206
16330.000000,-0.000461
16332.000000,0.000274
16334.000000,0.000267
16336.000000,0.000411
16338.000000,0.000947
16340.000000,-0.000330
16342.000000,0.001942
16344.000000,-0.000136
16346.000000,-0.000201
16348.000000,-0.000124
16350.000000,-0.000269
16352.000000,-0.000068
16354.000000,0.000740
16356.000000,0.000883
16358.000000,0.001477
16360.000000,0.000955
16362.000000,0.002561
16364.000000,0.000818
16366.000000,0.002231
16368.000000,-0.000003
16370.000000,-0.000670
16372.000000,0.001350
16374.000000,0.001091
16376.000000,0.001623
16378.000000,0.002229
16380.000000,0.002306
16382.000000,0.001492
16384.000000,0.001557
16386.000000,0.002305
16388.000000,0.002780
16390.000000,0.002524
16392.000000,0.002865
16394.000000,0.003322
16396.000000,0.002858
16398.000000,0.004543
16400.000000,0.004434
16402.000000,0.003750
16404.000000,0.004431
16406.000000,0.004783
16408.000000,0.004711
16410.000000,0.005400
16412.000000,0.006286
16414.000000,0.007191
16416.000000,0.005822
16418.000000,0.007192
16420.000000,0.007877
16422.000000,0.008645
16424.000000,0.009599
16426.000000,0.009607
16428.000000,0.010654
16430.000000,0.011224
16432.000000,0.013856
16434.000000,0.014324
16436.000000,0.015235
16438.000000,0.016473
16440.000000,0.019244
16442.000000,0.019252
16444.000000,0.022398
16446.000000,0.023809
16448.000000,0.026840
16450.000000,0.029034
16452.000000,0.033587
16454.000000,0.036184
16456.000000,0.040625
16458.000000,0.044676
16460.000000,0.050143
16462.000000,0.056550
16464.000000,0.061032
16466.000000,0.070509
16468.000000,0.077722
16470.000000,0.084370
16472.000000,0.095112
16474.000000,0.110685
16476.000000,0.123431
16478.000000,0.141065
16480.000000,0.156939
16482.000000,0.180220
16484.000000,0.199966
16486.000000,0.226285
16488.000000,0.252320
16490.000000,0.281229
16492.000000,0.317784
16494.000000,0.351172
16496.000000,0.393831
16498.000000,0.432155
16500.000000,0.482606
16502.000000,0.521379
16504.000000,0.565973
16506.000000,0.601827
16508.000000,0.643809
16510.000000,0.674716
16512.000000,0.710994
16514.000000,0.734284
16516.000000,0.757328
16518.000000,0.774072
16520.000000,0.784408
16522.000000,0.791900
16524.000000,0.793417
16526.000000,0.793493
16528.000000,0.790689
16530.000000,0.784783
16532.000000,0.778464
16534.000000,0.770276
16536.000000,0.763654
16538.000000,0.754415
16540.000000,0.748515
16542.000000,0.742079
16544.000000,0.735052
16546.000000,0.730127
16548.000000,0.725563
16550.000000,0.723364
16552.000000,0.720494
16554.000000,0.719946
16556.000000,0.720063
16558.000000,0.720715
16560.000000,0.722204
16562.000000,0.724365
16564.000000,0.728281
16566.000000,0.731341
16568.000000,0.735732
16570.000000,0.741499
16572.000000,0.746571
16574.000000,0.751599
16576.000000,0.757392
16578.000000,0.764107
16580.000000,0.768473
16582.000000,0.774525
16584.000000,0.781555
16586.000000,0.785812
16588.000000,0.790535
16590.000000,0.795791
16592.000000,0.798733
16594.000000,0.803334
16596.000000,0.804910
16598.000000,0.806026
16600.000000,0.805632
16602.000000,0.806114
16604.000000,0.804329
16606.000000,0.803092
16608.000000,0.799901
16610.000000,0.795780
16612.000000,0.791484
16614.000000,0.786340
16616.000000,0.779426
16618.000000,0.771957
16620.000000,0.762089
16622.000000,0.755114
16624.000000,0.745133
16626.000000,0.736455
16628.000000,0.725930
16630.000000,0.714171
16632.000000,0.703180
16634.000000,0.691141
16636.000000,0.678311
16638.000000,0.663025
16640.000000,0.648825
16642.000000,0.634955
16644.000000,0.619709
16646.000000,0.600413
16648.000000,0.586022
16650.000000,0.566282
16652.000000,0.547791
16654.000000,0.529185
16656.000000,0.507850
16658.000000,0.487878
16660.000000,0.466554
16662.000000,0.445843
16664.000000,0.422854
16666.000000,0.401181
16668.000000,0.376366
16670.000000,0.356236
16672.000000,0.330083
16674.000000,0.310779
16676.000000,0.287607
16678.000000,0.269162
16680.000000,0.249160
16682.000000,0.231941
16684.000000,0.213883
16686.000000,0.196490
16688.000000,0.181724
16690.000000,0.165039
16692.000000,0.152136
16694.000000,0.138160
16696.000000,0.127038
16698.000000,0.114086
16700.000000,0.105725
16702.000000,0.095350
16704.000000,0.088367
16706.000000,0.080554
16708.000000,0.074908
16710.000000,0.067341
16712.000000,0.061683
16714.000000,0.055332
16716.000000,0.051205
16718.000000,0.046677
16720.000000,0.042739
16722.000000,0.038322
16724.000000,0.035159
16726.000000,0.033710
16728.000000,0.029837
16730.000000,0.027687
16732.000000,0.025390
16734.000000,0.022622
16736.000000,0.023542
16738.000000,0.020365
16740.000000,0.018856
16742.000000,0.015886
16744.000000,0.015817
16746.000000,0.014807
16748.000000,0.013595
16750.000000,0.010725
16752.000000,0.011681
16754.000000,0.010322
16756.000000,0.010850
16758.000000,0.010236
16760.000000,0.007875
16762.000000,0.008486
16764.000000,0.007624
16766.000000,0.007319
16768.000000,0.006485
16770.000000,0.006335
16772.000000,0.004183
16774.000000,0.005027
16776.000000,0.005634
16778.000000,0.005338
16780.000000,0.003804
16782.000000,0.004417
16784.000000,0.003337
16786.000000,0.003420
16788.000000,0.002951
16790.000000,0.003109
16792.000000,0.002724
16794.000000,0.001244
16796.000000,0.001869
16798.000000,0.004882
16800.000000,0.001794
16802.000000,0.002804
16804.000000,0.001872
16806.000000,0.002028
16808.000000,0.002030
16810.000000,0.001566
16812.000000,0.002652
16814.000000,0.000939
16816.000000,0.001098
16818.000000,0.002507
16820.000000,0.001408
16822.000000,-0.000003
16824.000000,0.001494
16826.000000,0.001967
16828.000000,0.000074
16830.000000,0.002361
16832.000000,0.001340
16834.000000,0.002444
16836.000000,0.000631
16838.000000,0.000474
16840.000000,0.000943
16842.000000,-0.000397
16844.000000,0.000790
16846.000000,0.001029
16848.000000,0.000472
16850.000000,0.000155
16852.000000,0.000079
16854.000000,0.000157
16856.000000,0.001034
16858.000000,0.000557
16860.000000,-0.000716
16862.000000,0.000797
16864.000000,0.000638
16866.000000,0.000398
16868.000000,0.000638
16870.000000,0.000477
16872.000000,0.000078
16874.000000,0.000797
16876.000000,0.001037
16878.000000,0.000073
16880.000000,-0.000646
16882.000000,-0.000806
16884.000000,0.000561
16886.000000,-0.000003
16888.000000,0.000318
16890.000000,0.000721
16892.000000,-0.000726
16894.000000,-0.000245
16896.000000,0.001846
16898.000000,-0.000084
16900.000000,-0.000324
16902.000000,-0.000084
16904.000000,-0.000731
16906.000000,0.001049
16908.000000,0.001129
16910.000000,-0.000004
16912.000000,-0.000408
16914.000000,0.000242
16916.000000,-0.000165
16918.000000,0.000406
16920.000000,0.000485
16922.000000,-0.000245
16924.000000,0.000322
16926.000000,-0.000084
16928.000000,0.000081
16930.000000,0.000574
16932.000000,0.001708
16934.000000,0.000407
16936.000000,-0.000822
16938.000000,-0.000819
16940.000000,0.000568
16942.000000,-0.000002
16944.000000,0.000815
16946.000000,-0.000089
16948.000000,-0.001969
16950.000000,0.000572
16952.000000,0.000571
16954.000000,-0.000002
16956.000000,0.000244
16958.000000,0.001311
16960.000000,-0.000004
16962.000000,-0.000416
16964.000000,-0.000086
16966.000000,-0.000332
16968.000000,-0.001570
16970.000000,-0.000082
16972.000000,0.000407
16974.000000,-0.001083
16976.000000,-0.001078
16978.000000,0.000247
16980.000000,0.000084
16982.000000,0.000493
16984.000000,0.000663
16986.000000,0.000084
16988.000000,0.000492
16990.000000,0.000412
16992.000000,-0.000586
16994.000000,0.000081
16996.000000,-0.000669
16998.000000,-0.001509
17000.000000,-0.000588
17000.001953,0.000000
