# WAVELENGTH_UNIT	AA
# COMPNAME       	HST_WFC3_F606W
# NAME           	HST_WFC3_F606W
# DETECTOR       	photon
#
## WAVELENGTH	None	AA
## THROUGHPUT	None	filter throughput definition
#
WAVELENGTH,THROUGHPUT
1998.648193,0.000000
1999.648193,0.000000
2000.648193,0.000000
2020.651733,0.000000
2040.655273,0.000000
2080.662842,0.000000
2100.666748,0.000000
2120.670654,0.000000
2140.674561,0.000000
2160.678711,0.000000
2180.682861,0.000000
2200.687012,0.000000
2220.691162,0.000000
2240.695312,0.000000
2280.704102,0.000000
2300.708496,0.000000
2340.717285,0.000000
2360.721680,0.000000
2420.735107,0.000000
2440.739746,0.000000
2460.744385,0.000000
2480.749023,0.000000
2500.753662,0.000000
2520.758301,0.000000
2560.767578,0.000000
2600.777100,0.000000
2640.786621,0.000000
2660.791504,0.000000
2700.801025,0.000000
2760.815674,0.000000
2780.820312,0.000000
2840.835205,0.000000
2860.840088,0.000000
2900.849854,0.000000
2920.854736,0.000000
2960.864746,0.000000
2980.869629,0.000000
3020.879639,0.000000
3040.884766,0.000000
3060.889648,0.000000
3100.899658,0.000000
3120.904785,0.000000
3140.909912,0.000000
3160.914795,0.000000
3180.919922,0.000000
3260.940186,0.000000
3280.945312,0.000000
3300.950195,0.000000
3320.955322,0.000000
3340.960449,0.000000
3380.970703,0.000000
3400.975830,0.000000
3420.980957,0.000000
3440.986084,0.000000
3460.991211,0.000000
3480.996338,0.000000
3561.016846,0.000000
3581.021973,0.000000
3601.027100,0.000000
3641.037598,0.000000
3661.042480,0.000000
3681.047852,0.000000
3801.078857,0.000000
3821.083984,0.000000
3841.089355,0.000000
3861.094482,0.000000
3881.099609,0.000001
3941.115479,0.000001
3961.120605,0.000001
3981.125732,0.000001
4001.131104,0.000001
4021.136230,0.000001
4041.141602,0.000001
4061.146729,0.000001
4081.151855,0.000001
4101.157227,0.000002
4121.162598,0.000002
4141.167480,0.000002
4161.172852,0.000002
4181.178223,0.000002
4201.183594,0.000003
4221.188477,0.000003
4241.193848,0.000003
4261.199219,0.000004
4281.204590,0.000005
4301.209473,0.000006
4321.214844,0.000006
4341.220215,0.000007
4361.225586,0.000009
4381.230469,0.000011
4401.235840,0.000013
4421.241211,0.000016
4441.246582,0.000018
4461.251953,0.000022
4481.257324,0.000036
4501.262207,0.000048
4521.267578,0.000056
4531.270508,0.000047
4541.272949,0.000108
4551.275391,0.000146
4561.278320,0.000131
4571.280762,0.000129
4581.283691,0.000236
4591.286133,0.000382
4601.288574,0.000409
4611.291504,0.000417
4621.293945,0.000458
4631.296875,0.000615
4641.299316,0.001118
4651.301758,0.002084
4661.304688,0.002905
4671.307129,0.003559
4681.310059,0.004849
4691.312500,0.007368
4701.315430,0.010406
4711.317871,0.012870
4721.320312,0.016799
4731.323242,0.027839
4741.325684,0.058351
4751.328613,0.118862
4761.331055,0.173230
4771.333984,0.207872
4781.336426,0.288020
4791.338867,0.469084
4801.341797,0.721132
4811.344238,0.891158
4821.347168,0.950595
4831.349609,0.965228
4841.352539,0.951723
4851.354980,0.937566
4861.357422,0.949538
4871.360352,0.971040
4881.362793,0.964413
4891.365723,0.932004
4901.368164,0.905458
4911.371094,0.902375
4921.373535,0.916826
4931.375977,0.936590
4941.378906,0.957295
4951.381348,0.972411
4961.384277,0.974609
4971.386719,0.961277
4981.389648,0.944989
4991.392090,0.941834
5001.395020,0.955920
5011.397461,0.972645
5021.399902,0.973750
5031.402832,0.952261
5041.405273,0.921434
5051.408203,0.898020
5061.410645,0.890747
5071.413574,0.898559
5081.416016,0.913321
5091.418945,0.927364
5101.421387,0.934536
5111.424316,0.937756
5121.426758,0.941971
5131.429199,0.951722
5141.432129,0.962900
5151.434570,0.966526
5161.437500,0.955049
5171.439941,0.932256
5181.442871,0.911540
5191.445312,0.904270
5201.448242,0.916183
5211.450684,0.941363
5221.453613,0.967433
5231.456055,0.982436
5241.458496,0.983307
5251.461426,0.975519
5261.463867,0.966653
5271.466797,0.960592
5281.469238,0.956919
5291.472168,0.953452
5301.474609,0.949213
5311.477539,0.946148
5321.479980,0.946337
5331.482910,0.952075
5341.485352,0.961439
5351.487793,0.972468
5361.490723,0.981981
5371.493164,0.987499
5381.496094,0.988789
5391.498535,0.985673
5401.501465,0.980016
5411.503906,0.972721
5421.506836,0.964178
5431.509277,0.955726
5441.512207,0.948843
5451.514648,0.944465
5461.517578,0.944182
5471.520020,0.948552
5481.522461,0.957286
5491.525391,0.968335
5501.527832,0.979192
5511.530762,0.986935
5521.533203,0.989105
5531.536133,0.985426
5541.538574,0.976845
5551.541504,0.966131
5561.543945,0.954842
5571.546875,0.945038
5581.549316,0.938247
5591.552246,0.935349
5601.554688,0.937345
5611.557617,0.944126
5621.560059,0.954673
5631.562988,0.966831
5641.565430,0.977916
5651.567871,0.984702
5661.570801,0.985580
5671.573730,0.981286
5681.576172,0.973127
5691.578613,0.964200
5701.581543,0.956544
5711.583984,0.951256
5721.586914,0.948130
5731.589355,0.946276
5741.592285,0.945521
5751.594727,0.945757
5761.597656,0.947485
5771.600098,0.951634
5781.603027,0.958879
5791.605469,0.968507
5801.608398,0.978505
5811.610840,0.986148
5821.613770,0.988674
5831.616211,0.984553
5841.619141,0.974480
5851.621582,0.961344
5861.624512,0.948745
5871.626953,0.939327
5881.629883,0.934811
5891.632324,0.935498
5901.634766,0.939618
5911.637695,0.946152
5921.640625,0.953380
5931.643066,0.960019
5941.645508,0.966025
5951.648438,0.971420
5961.650879,0.976470
5971.653809,0.981493
5981.656738,0.985679
5991.659180,0.987829
6001.661621,0.987079
6011.664551,0.982700
6021.666992,0.974542
6031.669922,0.963979
6041.672363,0.953454
6051.675293,0.945253
6061.677734,0.940851
6071.680664,0.941453
6081.683105,0.946245
6091.686035,0.953434
6101.688477,0.960529
6111.691406,0.965526
6121.693848,0.967600
6131.696777,0.967721
6141.699219,0.967252
6151.702148,0.968604
6161.704590,0.972402
6171.707520,0.978092
6181.709961,0.983870
6191.712891,0.986107
6201.715332,0.982815
6211.718262,0.972729
6221.720703,0.957790
6231.723633,0.941533
6241.726074,0.928156
6251.729004,0.919707
6261.731445,0.918444
6271.734375,0.924388
6281.736816,0.935499
6291.739746,0.949440
6301.742188,0.962847
6311.745117,0.973895
6321.747559,0.980481
6331.750488,0.983266
6341.752930,0.983140
6351.755859,0.982478
6361.758301,0.982716
6371.761230,0.983816
6381.763672,0.985353
6391.766602,0.986169
6401.769043,0.983534
6411.771973,0.976819
6421.774414,0.966201
6431.777344,0.952857
6441.779785,0.939610
6451.782715,0.929079
6461.785156,0.923405
6471.788086,0.924431
6481.790527,0.931006
6491.793457,0.941400
6501.795898,0.953684
6511.798828,0.965391
6521.801270,0.974148
6531.804199,0.979883
6541.806641,0.982890
6551.809570,0.983745
6561.812012,0.983580
6571.814941,0.983060
6581.817383,0.982404
6591.820312,0.980777
6601.822754,0.978248
6611.825684,0.974763
6621.828125,0.970989
6631.831055,0.967794
6641.833496,0.965762
6651.836426,0.965084
6661.838867,0.964922
6671.841797,0.963766
6681.844238,0.960455
6691.847168,0.956156
6701.849609,0.950582
6711.852539,0.945789
6721.854980,0.942836
6731.857910,0.943145
6741.860352,0.946903
6751.863281,0.953296
6761.865723,0.961158
6771.868652,0.968363
6781.871094,0.974092
6791.874023,0.977611
6801.876465,0.979474
6811.879395,0.980123
6821.882324,0.980165
6831.884766,0.980049
6841.887695,0.979172
6851.890137,0.978267
6861.892578,0.977228
6871.895508,0.976910
6881.898438,0.976797
6891.900879,0.978098
6901.903809,0.978531
6911.906250,0.976626
6921.909180,0.970754
6931.911621,0.958893
6941.914551,0.943762
6951.916992,0.927341
6961.919922,0.914236
6971.922363,0.907885
6981.925293,0.910472
6991.927734,0.920233
7001.930664,0.935444
7011.933105,0.950674
7021.936035,0.961972
7031.938477,0.967680
7041.941406,0.969737
7051.943848,0.965803
7061.946777,0.942071
7071.949219,0.870862
7081.952148,0.733892
7091.954590,0.555013
7101.957520,0.384959
7111.959961,0.257386
7121.962891,0.172905
7131.965332,0.119657
7141.968262,0.085679
7151.970703,0.063036
7161.973633,0.046988
7171.976074,0.034969
7181.979004,0.025693
7191.981934,0.018494
7201.984375,0.013034
7211.987305,0.009099
7221.989746,0.006382
7231.992676,0.004539
7241.995117,0.003288
7251.998047,0.002434
7262.000488,0.001886
7272.003418,0.001465
7282.005859,0.001201
7292.008789,0.000988
7302.011230,0.000801
7312.014160,0.000672
7322.016602,0.000558
7332.019531,0.000483
7342.021973,0.000418
7352.024902,0.000383
7362.027344,0.000306
7372.030273,0.000262
7382.032715,0.000192
7392.035645,0.000184
7402.038086,0.000146
7412.041016,0.000135
7422.043457,0.000143
7432.046387,0.000101
7442.049316,0.000081
7452.051758,0.000078
7462.054688,0.000056
7472.057129,0.000000
7482.060059,0.000000
7502.065430,0.000028
7522.070801,0.000020
7542.076172,0.000016
7562.081543,0.000014
7582.086914,0.000013
7602.092285,0.000012
7622.097656,0.000012
7642.103027,0.000010
7662.108398,0.000009
7682.113770,0.000007
7702.119141,0.000005
7722.124512,0.000004
7742.129883,0.000004
7762.135254,0.000003
7782.140625,0.000003
7802.145996,0.000003
7822.151367,0.000003
7842.157227,0.000002
7862.162598,0.000003
7882.167969,0.000003
7902.173340,0.000003
7922.178711,0.000003
7942.184082,0.000003
7962.189453,0.000002
7982.194824,0.000002
8002.200195,0.000002
8022.205566,0.000002
8042.210938,0.000015
8102.227539,0.000043
8122.232910,0.000045
8142.238281,0.000024
8162.243652,0.000023
8182.249023,0.000031
8202.253906,0.000024
8222.259766,0.000033
8242.264648,0.000050
8262.270508,0.000043
8282.276367,0.000038
8302.281250,0.000042
8322.287109,0.000029
8342.291992,0.000023
8362.297852,0.000024
8382.302734,0.000028
8402.308594,0.000024
8422.313477,0.000033
8442.319336,0.000025
8462.324219,0.000017
8482.330078,0.000033
8502.334961,0.000030
8522.340820,0.000019
8542.346680,0.000019
8562.351562,0.000020
8582.357422,0.000027
8602.362305,0.000023
8622.368164,0.000016
8642.373047,0.000019
8662.378906,0.000019
8682.383789,0.000014
8702.389648,0.000017
8722.394531,0.000024
8742.400391,0.000017
8762.405273,0.000013
8782.411133,0.000015
8802.416016,0.000014
8822.421875,0.000012
8842.427734,0.000012
8862.432617,0.000009
8882.438477,0.000007
8902.443359,0.000012
8922.449219,0.000010
8942.454102,0.000006
8962.459961,0.000013
8982.464844,0.000013
9002.470703,0.000006
9022.476562,0.000007
9042.481445,0.000006
9062.487305,0.000009
9082.492188,0.000009
9102.498047,0.000006
9122.502930,0.000007
9142.508789,0.000008
9162.513672,0.000008
9182.519531,0.000006
9202.524414,0.000006
9222.530273,0.000007
9242.535156,0.000006
9262.541016,0.000005
9282.546875,0.000006
9302.551758,0.000006
9322.557617,0.000006
9342.562500,0.000007
9362.568359,0.000006
9382.573242,0.000007
9402.579102,0.000006
9422.583984,0.000006
9442.589844,0.000003
9462.594727,0.000004
9482.600586,0.000004
9502.606445,0.000003
9522.611328,0.000004
9542.617188,0.000006
9562.622070,0.000005
9582.627930,0.000004
9602.632812,0.000005
9622.638672,0.000003
9642.643555,0.000004
9662.649414,0.000005
9682.655273,0.000004
9702.660156,0.000003
9722.666016,0.000005
9742.670898,0.000004
9762.676758,0.000003
9782.681641,0.000004
9802.687500,0.000003
9822.692383,0.000003
9842.698242,0.000003
9862.703125,0.000004
9882.708984,0.000002
9902.714844,0.000002
9922.719727,0.000003
9942.725586,0.000004
9962.730469,0.000003
9982.736328,0.000003
10002.741211,0.000004
10022.747070,0.000001
10042.751953,0.000005
10062.757812,0.000004
10082.762695,0.000003
10102.768555,0.000002
10122.774414,0.000002
10142.779297,0.000003
10162.785156,0.000003
10182.790039,0.000003
10202.795898,0.000002
10222.800781,0.000004
10242.806641,0.000004
10262.811523,0.000002
10282.817383,0.000002
10302.823242,0.000005
10322.828125,0.000003
10342.833984,0.000003
10362.838867,0.000005
10382.843750,0.000004
10402.849609,0.000003
10422.855469,0.000003
10442.861328,0.000004
10462.866211,0.000003
10482.872070,0.000002
10502.876953,0.000003
10522.881836,0.000003
10542.887695,0.000001
10562.892578,0.000004
10582.899414,0.000003
10602.904297,0.000002
10622.910156,0.000003
10642.915039,0.000003
10662.919922,0.000003
10682.925781,0.000004
10702.930664,0.000004
10722.936523,0.000005
10742.942383,0.000006
10762.948242,0.000008
10782.953125,0.000007
10802.958008,0.000010
10822.963867,0.000012
10842.968750,0.000013
10862.974609,0.000015
10882.980469,0.000015
10902.986328,0.000016
10922.991211,0.000016
10942.996094,0.000017
10963.001953,0.000017
10964.001953,0.000000
10965.001953,0.000000
