# WAVELENGTH_UNIT	AA
# COMPNAME       	HST_NIC3_F175W
# NAME           	HST_NIC3_F175W
# DETECTOR       	photon
#
## WAVELENGTH	None	AA
## THROUGHPUT	None	filter throughput definition
#
WAVELENGTH,THROUGHPUT
9994.999023,0.000000
9995.000000,0.000045
10000.000000,0.000177
10005.000000,0.000132
10010.000000,0.000012
10015.000000,0.000004
10020.000000,0.000104
10025.000000,-0.000095
10030.000000,0.000142
10035.000000,0.000051
10040.000000,0.000008
10045.000000,0.000008
10050.000000,0.000068
10055.000000,-0.000130
10060.000000,0.000025
10065.000000,0.000042
10070.000000,0.000117
10075.000000,-0.000083
10080.000000,-0.000025
10085.000000,0.000015
10090.000000,0.000369
10095.000000,0.000048
10100.000000,0.000041
10105.000000,0.000007
10110.000000,0.000040
10115.000000,0.000040
10120.000000,0.000128
10125.000000,0.000104
10130.000000,0.000167
10135.000000,0.000079
10140.000000,0.000008
10145.000000,0.000158
10150.000000,0.000205
10155.000000,-0.000023
10160.000000,0.000156
10165.000000,0.000093
10170.000000,0.000009
10175.000000,-0.000015
10180.000000,0.000100
10185.000000,0.000155
10190.000000,0.000063
10195.000000,0.000056
10200.000000,0.000048
10205.000000,-0.000038
10210.000000,0.000086
10215.000000,0.000015
10220.000000,0.000045
10225.000000,0.000052
10230.000000,0.000078
10235.000000,0.000059
10240.000000,0.000037
10245.000000,0.000088
10250.000000,-0.000044
10255.000000,0.000063
10260.000000,0.000088
10265.000000,-0.000204
10270.000000,-0.000051
10275.000000,0.000051
10280.000000,-0.000024
10285.000000,0.000007
10290.000000,0.000136
10295.000000,-0.000007
10300.000000,-0.000001
10305.000000,-0.000000
10310.000000,-0.000092
10315.000000,0.000156
10320.000000,0.000318
10325.000000,-0.000021
10330.000000,0.000063
10335.000000,0.000042
10340.000000,0.000042
10345.000000,0.000105
10350.000000,0.000007
10355.000000,0.000125
10360.000000,-0.000014
10365.000000,0.000001
10370.000000,0.000056
10375.000000,0.000241
10380.000000,0.000172
10385.000000,0.000090
10390.000000,0.000000
10395.000000,0.000088
10400.000000,-0.000047
10405.000000,0.000149
10410.000000,-0.000013
10415.000000,0.000067
10420.000000,0.000054
10425.000000,0.000134
10430.000000,0.000053
10435.000000,-0.000007
10440.000000,0.000100
10445.000000,0.000103
10450.000000,-0.000059
10455.000000,-0.000026
10460.000000,0.000103
10465.000000,0.000092
10470.000000,0.000109
10475.000000,0.000052
10480.000000,-0.000026
10485.000000,0.000011
10490.000000,0.000097
10495.000000,0.000039
10500.000000,-0.000039
10505.000000,0.000019
10510.000000,-0.000065
10515.000000,0.000026
10520.000000,0.000064
10525.000000,0.000031
10530.000000,0.000057
10535.000000,0.000013
10540.000000,0.000146
10545.000000,0.000038
10550.000000,0.000038
10555.000000,0.000031
10560.000000,-0.000063
10565.000000,0.000056
10570.000000,0.000031
10575.000000,0.000026
10580.000000,0.000013
10585.000000,0.000101
10590.000000,0.000044
10595.000000,0.000206
10600.000000,0.000062
10605.000000,-0.000066
10610.000000,0.000062
10615.000000,0.000113
10620.000000,0.000154
10625.000000,0.000051
10630.000000,0.000104
10635.000000,0.000027
10640.000000,-0.000030
10645.000000,0.000000
10650.000000,0.000006
10655.000000,0.000112
10660.000000,0.000097
10665.000000,0.000072
10670.000000,0.000112
10675.000000,0.000144
10680.000000,-0.000018
10685.000000,0.000018
10690.000000,0.000054
10695.000000,0.000108
10700.000000,-0.000032
10705.000000,0.000089
10710.000000,0.000012
10715.000000,0.000071
10720.000000,0.000170
10725.000000,0.000035
10730.000000,0.000035
10735.000000,0.000024
10740.000000,0.000065
10745.000000,0.000018
10750.000000,0.000082
10755.000000,0.000064
10760.000000,0.000169
10765.000000,0.000117
10770.000000,0.000087
10775.000000,0.000192
10780.000000,0.000058
10785.000000,0.000000
10790.000000,0.000012
10795.000000,-0.000000
10800.000000,0.000012
10805.000000,0.000070
10810.000000,0.000086
10815.000000,-0.000016
10820.000000,0.000007
10825.000000,0.000036
10830.000000,-0.000004
10835.000000,-0.000000
10840.000000,0.000006
10845.000000,0.000116
10850.000000,0.000074
10855.000000,0.000091
10860.000000,0.000057
10865.000000,0.000011
10870.000000,0.000085
10875.000000,0.000011
10880.000000,0.000023
10885.000000,-0.000107
10890.000000,0.000101
10895.000000,0.000095
10900.000000,0.000140
10905.000000,0.000065
10910.000000,0.000095
10915.000000,0.000100
10920.000000,0.000117
10925.000000,0.000039
10930.000000,0.000095
10935.000000,0.000067
10940.000000,0.000189
10945.000000,0.000144
10950.000000,0.000170
10955.000000,0.000149
10960.000000,0.000116
10965.000000,0.000072
10970.000000,0.000138
10975.000000,0.000071
10980.000000,0.000032
10985.000000,0.000142
10990.000000,0.000121
10995.000000,0.000006
11000.000000,0.000137
11005.000000,0.000158
11010.000000,0.000049
11015.000000,0.000109
11020.000000,0.000065
11025.000000,0.000076
11030.000000,0.000141
11035.000000,0.000222
11040.000000,0.000103
11045.000000,0.000179
11050.000000,0.000114
11055.000000,0.000103
11060.000000,0.000146
11065.000000,0.000131
11070.000000,0.000184
11075.000000,0.000179
11080.000000,0.000173
11085.000000,0.000195
11090.000000,0.000173
11095.000000,0.000179
11100.000000,0.000168
11105.000000,0.000152
11110.000000,0.000214
11115.000000,0.000114
11120.000000,0.000171
11125.000000,0.000230
11130.000000,0.000139
11135.000000,0.000146
11140.000000,0.000213
11145.000000,0.000187
11150.000000,0.000171
11155.000000,0.000101
11160.000000,0.000139
11165.000000,0.000181
11170.000000,0.000165
11175.000000,0.000203
11180.000000,0.000224
11185.000000,0.000312
11190.000000,0.000240
11195.000000,0.000229
11200.000000,0.000238
11205.000000,0.000208
11210.000000,0.000291
11215.000000,0.000243
11220.000000,0.000270
11225.000000,0.000171
11230.000000,0.000288
11235.000000,0.000250
11240.000000,0.000266
11245.000000,0.000371
11250.000000,0.000343
11255.000000,0.000297
11260.000000,0.000328
11265.000000,0.000386
11270.000000,0.000386
11275.000000,0.000374
11280.000000,0.000363
11285.000000,0.000390
11290.000000,0.000478
11295.000000,0.000414
11300.000000,0.000460
11305.000000,0.000371
11310.000000,0.000443
11315.000000,0.000417
11320.000000,0.000480
11325.000000,0.000455
11330.000000,0.000562
11335.000000,0.000527
11340.000000,0.000534
11345.000000,0.000472
11350.000000,0.000576
11355.000000,0.000547
11360.000000,0.000508
11365.000000,0.000689
11370.000000,0.000685
11375.000000,0.000711
11380.000000,0.000683
11385.000000,0.000765
11390.000000,0.000822
11395.000000,0.000812
11400.000000,0.000822
11405.000000,0.000750
11410.000000,0.000792
11415.000000,0.000853
11420.000000,0.000914
11425.000000,0.000914
11430.000000,0.000914
11435.000000,0.000948
11440.000000,0.001025
11445.000000,0.001015
11450.000000,0.001047
11455.000000,0.001129
11460.000000,0.001133
11465.000000,0.001199
11470.000000,0.001203
11475.000000,0.001287
11480.000000,0.001257
11485.000000,0.001310
11490.000000,0.001332
11495.000000,0.001355
11500.000000,0.001595
11505.000000,0.001531
11510.000000,0.001428
11515.000000,0.001628
11520.000000,0.001700
11525.000000,0.001704
11530.000000,0.001753
11535.000000,0.001788
11540.000000,0.001842
11545.000000,0.001855
11550.000000,0.002015
11555.000000,0.002045
11560.000000,0.002096
11565.000000,0.002167
11570.000000,0.002288
11575.000000,0.002349
11580.000000,0.002464
11585.000000,0.002520
11590.000000,0.002667
11595.000000,0.002692
11600.000000,0.002817
11605.000000,0.002958
11610.000000,0.003090
11615.000000,0.003165
11620.000000,0.003337
11625.000000,0.003424
11630.000000,0.003649
11635.000000,0.003822
11640.000000,0.003954
11645.000000,0.004086
11650.000000,0.004348
11655.000000,0.004486
11660.000000,0.004780
11665.000000,0.004962
11670.000000,0.005291
11675.000000,0.005538
11680.000000,0.005823
11685.000000,0.006061
11690.000000,0.006475
11695.000000,0.006834
11700.000000,0.007162
11705.000000,0.007586
11710.000000,0.007947
11715.000000,0.008378
11720.000000,0.008815
11725.000000,0.009294
11730.000000,0.009803
11735.000000,0.010401
11740.000000,0.010895
11745.000000,0.011518
11750.000000,0.012114
11755.000000,0.012656
11760.000000,0.013416
11765.000000,0.014162
11770.000000,0.014942
11775.000000,0.015719
11780.000000,0.016479
11785.000000,0.017231
11790.000000,0.018173
11795.000000,0.019066
11800.000000,0.020046
11805.000000,0.020957
11810.000000,0.021942
11815.000000,0.023066
11820.000000,0.024096
11825.000000,0.025290
11830.000000,0.026459
11835.000000,0.027693
11840.000000,0.029070
11845.000000,0.030469
11850.000000,0.031911
11855.000000,0.033421
11860.000000,0.035046
11865.000000,0.036775
11870.000000,0.038461
11875.000000,0.040505
11880.000000,0.042454
11885.000000,0.044750
11890.000000,0.047147
11895.000000,0.049679
11900.000000,0.052397
11905.000000,0.055215
11910.000000,0.058361
11915.000000,0.061915
11920.000000,0.065633
11925.000000,0.069753
11930.000000,0.074222
11935.000000,0.078811
11940.000000,0.083872
11945.000000,0.089484
11950.000000,0.095815
11955.000000,0.102600
11960.000000,0.110157
11965.000000,0.118057
11970.000000,0.126697
11975.000000,0.136045
11980.000000,0.146675
11985.000000,0.158440
11990.000000,0.171534
11995.000000,0.183829
12000.000000,0.198405
12005.000000,0.213873
12010.000000,0.230600
12015.000000,0.249234
12020.000000,0.269904
12025.000000,0.290382
12030.000000,0.312171
12035.000000,0.333992
12040.000000,0.357732
12045.000000,0.382846
12050.000000,0.409865
12055.000000,0.436613
12060.000000,0.462279
12065.000000,0.488144
12070.000000,0.513272
12075.000000,0.539561
12080.000000,0.565962
12085.000000,0.589787
12090.000000,0.612448
12095.000000,0.633335
12100.000000,0.653207
12105.000000,0.672160
12110.000000,0.690903
12115.000000,0.707769
12120.000000,0.721856
12125.000000,0.735520
12130.000000,0.747157
12135.000000,0.757992
12140.000000,0.768700
12145.000000,0.778552
12150.000000,0.787140
12155.000000,0.794275
12160.000000,0.801469
12165.000000,0.807592
12170.000000,0.813471
12175.000000,0.818689
12180.000000,0.823667
12185.000000,0.827571
12190.000000,0.830675
12195.000000,0.833524
12200.000000,0.835856
12205.000000,0.837381
12210.000000,0.838426
12215.000000,0.838353
12220.000000,0.837832
12225.000000,0.836503
12230.000000,0.834564
12235.000000,0.831887
12240.000000,0.828164
12245.000000,0.824362
12250.000000,0.819698
12255.000000,0.814749
12260.000000,0.808895
12265.000000,0.803160
12270.000000,0.796428
12275.000000,0.789564
12280.000000,0.783392
12285.000000,0.775471
12290.000000,0.769348
12295.000000,0.762505
12300.000000,0.755547
12305.000000,0.748788
12310.000000,0.742682
12315.000000,0.736977
12320.000000,0.731249
12325.000000,0.725762
12330.000000,0.720844
12335.000000,0.715901
12340.000000,0.712557
12345.000000,0.709190
12350.000000,0.706514
12355.000000,0.704112
12360.000000,0.702313
12365.000000,0.700952
12370.000000,0.700352
12375.000000,0.700123
12380.000000,0.700604
12385.000000,0.701409
12390.000000,0.702796
12395.000000,0.704834
12400.000000,0.707265
12405.000000,0.709875
12410.000000,0.713290
12415.000000,0.716821
12420.000000,0.720834
12425.000000,0.725460
12430.000000,0.730275
12435.000000,0.735231
12440.000000,0.740269
12445.000000,0.745681
12450.000000,0.751271
12455.000000,0.757167
12460.000000,0.762899
12465.000000,0.768546
12470.000000,0.774062
12475.000000,0.779873
12480.000000,0.785086
12485.000000,0.790710
12490.000000,0.795722
12495.000000,0.800535
12500.000000,0.805204
12505.000000,0.809345
12510.000000,0.813221
12515.000000,0.816784
12520.000000,0.820358
12525.000000,0.823109
12530.000000,0.825685
12535.000000,0.827758
12540.000000,0.829493
12545.000000,0.831011
12550.000000,0.832200
12555.000000,0.832991
12560.000000,0.833376
12565.000000,0.833743
12570.000000,0.833781
12575.000000,0.833618
12580.000000,0.833379
12585.000000,0.832690
12590.000000,0.832098
12595.000000,0.831477
12600.000000,0.830723
12605.000000,0.829686
12610.000000,0.828969
12615.000000,0.827956
12620.000000,0.827020
12625.000000,0.825901
12630.000000,0.825132
12635.000000,0.824435
12640.000000,0.823494
12645.000000,0.822767
12650.000000,0.822199
12655.000000,0.821628
12660.000000,0.821239
12665.000000,0.820713
12670.000000,0.820295
12675.000000,0.819897
12680.000000,0.819501
12685.000000,0.819308
12690.000000,0.819350
12695.000000,0.819122
12700.000000,0.818806
12705.000000,0.818779
12710.000000,0.818436
12715.000000,0.818377
12720.000000,0.818205
12725.000000,0.818169
12730.000000,0.818169
12735.000000,0.817904
12740.000000,0.817613
12745.000000,0.817465
12750.000000,0.817177
12755.000000,0.816896
12760.000000,0.816656
12765.000000,0.816188
12770.000000,0.815610
12775.000000,0.815114
12780.000000,0.814641
12785.000000,0.813948
12790.000000,0.813590
12795.000000,0.812804
12800.000000,0.812532
12805.000000,0.811861
12810.000000,0.811339
12815.000000,0.810919
12820.000000,0.810274
12825.000000,0.809922
12830.000000,0.809688
12835.000000,0.809089
12840.000000,0.808985
12845.000000,0.808717
12850.000000,0.808666
12855.000000,0.808501
12860.000000,0.808438
12865.000000,0.808528
12870.000000,0.808886
12875.000000,0.809141
12880.000000,0.809486
12885.000000,0.810234
12890.000000,0.810745
12895.000000,0.811477
12900.000000,0.812374
12905.000000,0.813150
12910.000000,0.814114
12915.000000,0.815109
12920.000000,0.816194
12925.000000,0.817704
12930.000000,0.818713
12935.000000,0.820172
12940.000000,0.821371
12945.000000,0.822830
12950.000000,0.824166
12955.000000,0.825609
12960.000000,0.827026
12965.000000,0.828600
12970.000000,0.829811
12975.000000,0.830957
12980.000000,0.832452
12985.000000,0.833302
12990.000000,0.834389
12995.000000,0.835484
13000.000000,0.836140
13005.000000,0.836721
13010.000000,0.837746
13015.000000,0.837848
13020.000000,0.838425
13025.000000,0.838377
13030.000000,0.838690
13035.000000,0.838504
13040.000000,0.837866
13045.000000,0.837384
13050.000000,0.836782
13055.000000,0.835913
13060.000000,0.834834
13065.000000,0.833694
13070.000000,0.832271
13075.000000,0.830930
13080.000000,0.829320
13085.000000,0.827461
13090.000000,0.825726
13095.000000,0.823472
13100.000000,0.821498
13105.000000,0.819384
13110.000000,0.817100
13115.000000,0.814754
13120.000000,0.812015
13125.000000,0.809511
13130.000000,0.807290
13135.000000,0.804666
13140.000000,0.802115
13145.000000,0.799635
13150.000000,0.796664
13155.000000,0.794015
13160.000000,0.791624
13165.000000,0.789010
13170.000000,0.786518
13175.000000,0.783966
13180.000000,0.781471
13185.000000,0.779011
13190.000000,0.776343
13195.000000,0.774195
13200.000000,0.771982
13205.000000,0.769672
13210.000000,0.767672
13215.000000,0.765566
13220.000000,0.763387
13225.000000,0.761367
13230.000000,0.759479
13235.000000,0.757686
13240.000000,0.755914
13245.000000,0.754240
13250.000000,0.752496
13255.000000,0.751284
13260.000000,0.749559
13265.000000,0.748221
13270.000000,0.747095
13275.000000,0.745655
13280.000000,0.744541
13285.000000,0.743375
13290.000000,0.742222
13295.000000,0.741427
13300.000000,0.740869
13305.000000,0.740072
13310.000000,0.739282
13315.000000,0.738611
13320.000000,0.738119
13325.000000,0.737727
13330.000000,0.737149
13335.000000,0.736997
13340.000000,0.736910
13345.000000,0.736524
13350.000000,0.736832
13355.000000,0.736785
13360.000000,0.736961
13365.000000,0.737317
13370.000000,0.737741
13375.000000,0.738186
13380.000000,0.738899
13385.000000,0.739372
13390.000000,0.739980
13395.000000,0.741037
13400.000000,0.741917
13405.000000,0.743140
13410.000000,0.744221
13415.000000,0.745606
13420.000000,0.747007
13425.000000,0.748151
13430.000000,0.750068
13435.000000,0.751561
13440.000000,0.753492
13445.000000,0.755432
13450.000000,0.757540
13455.000000,0.759442
13460.000000,0.761774
13465.000000,0.763900
13470.000000,0.766549
13475.000000,0.768891
13480.000000,0.771358
13485.000000,0.773861
13490.000000,0.776379
13495.000000,0.779354
13500.000000,0.782027
13505.000000,0.784696
13510.000000,0.787633
13515.000000,0.790494
13520.000000,0.793472
13525.000000,0.796252
13530.000000,0.799405
13535.000000,0.802345
13540.000000,0.805202
13545.000000,0.808156
13550.000000,0.811080
13555.000000,0.813990
13560.000000,0.817046
13565.000000,0.819691
13570.000000,0.822189
13575.000000,0.824717
13580.000000,0.826935
13585.000000,0.829628
13590.000000,0.831838
13595.000000,0.834312
13600.000000,0.836348
13605.000000,0.838452
13610.000000,0.840607
13615.000000,0.842659
13620.000000,0.844389
13625.000000,0.846040
13630.000000,0.847418
13635.000000,0.848598
13640.000000,0.849821
13645.000000,0.851015
13650.000000,0.851884
13655.000000,0.852988
13660.000000,0.853478
13665.000000,0.854074
13670.000000,0.854486
13675.000000,0.854902
13680.000000,0.855166
13685.000000,0.855276
13690.000000,0.855047
13695.000000,0.854631
13700.000000,0.854224
13705.000000,0.853639
13710.000000,0.852960
13715.000000,0.852148
13720.000000,0.851089
13725.000000,0.849981
13730.000000,0.848980
13735.000000,0.847764
13740.000000,0.846437
13745.000000,0.845054
13750.000000,0.843782
13755.000000,0.842498
13760.000000,0.841265
13765.000000,0.840007
13770.000000,0.838728
13775.000000,0.837550
13780.000000,0.836893
13785.000000,0.835440
13790.000000,0.834611
13795.000000,0.833772
13800.000000,0.832785
13805.000000,0.832572
13810.000000,0.831902
13815.000000,0.831430
13820.000000,0.831103
13825.000000,0.830847
13830.000000,0.830805
13835.000000,0.830756
13840.000000,0.830634
13845.000000,0.830772
13850.000000,0.830847
13855.000000,0.831260
13860.000000,0.831366
13865.000000,0.831842
13870.000000,0.832141
13875.000000,0.832558
13880.000000,0.832942
13885.000000,0.833528
13890.000000,0.834023
13895.000000,0.834531
13900.000000,0.834983
13905.000000,0.835367
13910.000000,0.835900
13915.000000,0.836555
13920.000000,0.836953
13925.000000,0.837414
13930.000000,0.837968
13935.000000,0.838341
13940.000000,0.838530
13945.000000,0.839126
13950.000000,0.839294
13955.000000,0.839922
13960.000000,0.840149
13965.000000,0.840401
13970.000000,0.840764
13975.000000,0.840838
13980.000000,0.840910
13985.000000,0.841104
13990.000000,0.841351
13995.000000,0.841241
14000.000000,0.841750
14005.000000,0.841577
14010.000000,0.841685
14015.000000,0.841672
14020.000000,0.841824
14025.000000,0.841983
14030.000000,0.841907
14035.000000,0.842215
14040.000000,0.841977
14045.000000,0.842130
14050.000000,0.842371
14055.000000,0.842501
14060.000000,0.842502
14065.000000,0.842653
14070.000000,0.842837
14075.000000,0.842953
14080.000000,0.843020
14085.000000,0.843194
14090.000000,0.843501
14095.000000,0.843774
14100.000000,0.843948
14105.000000,0.844362
14110.000000,0.844735
14115.000000,0.845052
14120.000000,0.845347
14125.000000,0.845879
14130.000000,0.846303
14135.000000,0.846801
14140.000000,0.847183
14145.000000,0.847634
14150.000000,0.848142
14155.000000,0.848568
14160.000000,0.849004
14165.000000,0.849563
14170.000000,0.850035
14175.000000,0.850529
14180.000000,0.851089
14185.000000,0.851394
14190.000000,0.851975
14195.000000,0.852427
14200.000000,0.852617
14205.000000,0.853183
14210.000000,0.853172
14215.000000,0.853475
14220.000000,0.853680
14225.000000,0.853781
14230.000000,0.854021
14235.000000,0.853822
14240.000000,0.853731
14245.000000,0.853818
14250.000000,0.853421
14255.000000,0.853120
14260.000000,0.852911
14265.000000,0.852478
14270.000000,0.852020
14275.000000,0.851487
14280.000000,0.850809
14285.000000,0.849922
14290.000000,0.849135
14295.000000,0.847987
14300.000000,0.847172
14305.000000,0.846084
14310.000000,0.844764
14315.000000,0.843667
14320.000000,0.842088
14325.000000,0.840778
14330.000000,0.839361
14335.000000,0.837835
14340.000000,0.836483
14345.000000,0.834936
14350.000000,0.833223
14355.000000,0.831522
14360.000000,0.829769
14365.000000,0.828016
14370.000000,0.826344
14375.000000,0.824526
14380.000000,0.822541
14385.000000,0.820911
14390.000000,0.818900
14395.000000,0.817347
14400.000000,0.815765
14405.000000,0.813908
14410.000000,0.812478
14415.000000,0.810649
14420.000000,0.808881
14425.000000,0.807681
14430.000000,0.806134
14435.000000,0.804629
14440.000000,0.803344
14445.000000,0.801821
14450.000000,0.800663
14455.000000,0.799491
14460.000000,0.798400
14465.000000,0.797358
14470.000000,0.796443
14475.000000,0.795370
14480.000000,0.794704
14485.000000,0.794005
14490.000000,0.793293
14495.000000,0.793219
14500.000000,0.792684
14505.000000,0.792076
14510.000000,0.792056
14515.000000,0.791832
14520.000000,0.791871
14525.000000,0.791805
14530.000000,0.791755
14535.000000,0.791949
14540.000000,0.792241
14545.000000,0.792686
14550.000000,0.793073
14555.000000,0.793770
14560.000000,0.794142
14565.000000,0.794887
14570.000000,0.795481
14575.000000,0.796336
14580.000000,0.797163
14585.000000,0.798193
14590.000000,0.798870
14595.000000,0.799803
14600.000000,0.800647
14605.000000,0.801713
14610.000000,0.802816
14615.000000,0.803806
14620.000000,0.804881
14625.000000,0.805786
14630.000000,0.807054
14635.000000,0.808211
14640.000000,0.809071
14645.000000,0.810395
14650.000000,0.811333
14655.000000,0.812274
14660.000000,0.813296
14665.000000,0.814112
14670.000000,0.815317
14675.000000,0.816122
14680.000000,0.816829
14685.000000,0.817587
14690.000000,0.818442
14695.000000,0.819197
14700.000000,0.819941
14705.000000,0.820557
14710.000000,0.821047
14715.000000,0.821655
14720.000000,0.822195
14725.000000,0.822408
14730.000000,0.822875
14735.000000,0.823051
14740.000000,0.823433
14745.000000,0.823440
14750.000000,0.823452
14755.000000,0.823752
14760.000000,0.823454
14765.000000,0.823682
14770.000000,0.823458
14775.000000,0.823117
14780.000000,0.823248
14785.000000,0.822793
14790.000000,0.822543
14795.000000,0.822264
14800.000000,0.821878
14805.000000,0.821737
14810.000000,0.821403
14815.000000,0.821159
14820.000000,0.820390
14825.000000,0.820097
14830.000000,0.819388
14835.000000,0.819053
14840.000000,0.818651
14845.000000,0.817974
14850.000000,0.817503
14855.000000,0.817096
14860.000000,0.816677
14865.000000,0.816385
14870.000000,0.815849
14875.000000,0.815463
14880.000000,0.814950
14885.000000,0.814559
14890.000000,0.814148
14895.000000,0.813930
14900.000000,0.813596
14905.000000,0.813020
14910.000000,0.812665
14915.000000,0.812749
14920.000000,0.812319
14925.000000,0.812244
14930.000000,0.812186
14935.000000,0.812002
14940.000000,0.811991
14945.000000,0.811923
14950.000000,0.811830
14955.000000,0.811690
14960.000000,0.811885
14965.000000,0.811923
14970.000000,0.811729
14975.000000,0.812149
14980.000000,0.811885
14985.000000,0.811783
14990.000000,0.812317
14995.000000,0.812361
15000.000000,0.812464
15005.000000,0.812960
15010.000000,0.813006
15015.000000,0.813293
15020.000000,0.813670
15025.000000,0.813720
15030.000000,0.814223
15035.000000,0.814531
15040.000000,0.814795
15045.000000,0.815339
15050.000000,0.815374
15055.000000,0.815875
15060.000000,0.816182
15065.000000,0.816628
15070.000000,0.816913
15075.000000,0.817590
15080.000000,0.817657
15085.000000,0.818003
15090.000000,0.818338
15095.000000,0.818902
15100.000000,0.819167
15105.000000,0.819546
15110.000000,0.819713
15115.000000,0.820014
15120.000000,0.820221
15125.000000,0.820515
15130.000000,0.821178
15135.000000,0.821325
15140.000000,0.821372
15145.000000,0.821858
15150.000000,0.822143
15155.000000,0.822584
15160.000000,0.822546
15165.000000,0.822784
15170.000000,0.823188
15175.000000,0.823257
15180.000000,0.823647
15185.000000,0.823647
15190.000000,0.824039
15195.000000,0.824287
15200.000000,0.824374
15205.000000,0.824500
15210.000000,0.824861
15215.000000,0.824998
15220.000000,0.825061
15225.000000,0.825504
15230.000000,0.825500
15235.000000,0.825920
15240.000000,0.825972
15245.000000,0.825949
15250.000000,0.826240
15255.000000,0.826267
15260.000000,0.826478
15265.000000,0.826660
15270.000000,0.826351
15275.000000,0.826599
15280.000000,0.826821
15285.000000,0.826903
15290.000000,0.826985
15295.000000,0.827007
15300.000000,0.826800
15305.000000,0.827086
15310.000000,0.827060
15315.000000,0.826940
15320.000000,0.826808
15325.000000,0.826766
15330.000000,0.826657
15335.000000,0.826596
15340.000000,0.826321
15345.000000,0.826110
15350.000000,0.825923
15355.000000,0.825529
15360.000000,0.825312
15365.000000,0.824920
15370.000000,0.824723
15375.000000,0.824393
15380.000000,0.823827
15385.000000,0.823320
15390.000000,0.823240
15395.000000,0.822379
15400.000000,0.822011
15405.000000,0.821280
15410.000000,0.820528
15415.000000,0.819868
15420.000000,0.819147
15425.000000,0.818254
15430.000000,0.817559
15435.000000,0.816582
15440.000000,0.815650
15445.000000,0.814898
15450.000000,0.813745
15455.000000,0.812647
15460.000000,0.811538
15465.000000,0.810328
15470.000000,0.809245
15475.000000,0.808235
15480.000000,0.806785
15485.000000,0.805378
15490.000000,0.803957
15495.000000,0.802566
15500.000000,0.801419
15505.000000,0.800098
15510.000000,0.798520
15515.000000,0.797200
15520.000000,0.795776
15525.000000,0.794136
15530.000000,0.792531
15535.000000,0.791181
15540.000000,0.789747
15545.000000,0.788140
15550.000000,0.786806
15555.000000,0.785060
15560.000000,0.783641
15565.000000,0.782298
15570.000000,0.780855
15575.000000,0.779494
15580.000000,0.778035
15585.000000,0.776561
15590.000000,0.775152
15595.000000,0.773794
15600.000000,0.772401
15605.000000,0.771388
15610.000000,0.770186
15615.000000,0.768893
15620.000000,0.767765
15625.000000,0.766603
15630.000000,0.765532
15635.000000,0.764387
15640.000000,0.763824
15645.000000,0.762742
15650.000000,0.761872
15655.000000,0.761041
15660.000000,0.760367
15665.000000,0.759836
15670.000000,0.759044
15675.000000,0.758654
15680.000000,0.758076
15685.000000,0.757524
15690.000000,0.757130
15695.000000,0.756987
15700.000000,0.756585
15705.000000,0.756410
15710.000000,0.756223
15715.000000,0.756177
15720.000000,0.756205
15725.000000,0.756243
15730.000000,0.756330
15735.000000,0.756661
15740.000000,0.756745
15745.000000,0.756987
15750.000000,0.757367
15755.000000,0.757649
15760.000000,0.758097
15765.000000,0.758695
15770.000000,0.759175
15775.000000,0.759985
15780.000000,0.760480
15785.000000,0.761083
15790.000000,0.761828
15795.000000,0.762510
15800.000000,0.763190
15805.000000,0.764253
15810.000000,0.764892
15815.000000,0.765961
15820.000000,0.766769
15825.000000,0.767236
15830.000000,0.768389
15835.000000,0.769110
15840.000000,0.770007
15845.000000,0.770903
15850.000000,0.771837
15855.000000,0.772686
15860.000000,0.773489
15865.000000,0.774245
15870.000000,0.775092
15875.000000,0.776116
15880.000000,0.776700
15885.000000,0.777420
15890.000000,0.778203
15895.000000,0.778887
15900.000000,0.779630
15905.000000,0.780154
15910.000000,0.780748
15915.000000,0.781307
15920.000000,0.781918
15925.000000,0.782191
15930.000000,0.782748
15935.000000,0.782821
15940.000000,0.783294
15945.000000,0.783624
15950.000000,0.783683
15955.000000,0.783668
15960.000000,0.783887
15965.000000,0.783625
15970.000000,0.783675
15975.000000,0.783448
15980.000000,0.783487
15985.000000,0.783182
15990.000000,0.782979
15995.000000,0.782506
16000.000000,0.781979
16005.000000,0.781396
16010.000000,0.781070
16015.000000,0.780657
16020.000000,0.779974
16025.000000,0.779281
16030.000000,0.778547
16035.000000,0.777918
16040.000000,0.777297
16045.000000,0.776400
16050.000000,0.775551
16055.000000,0.774833
16060.000000,0.773933
16065.000000,0.772977
16070.000000,0.772276
16075.000000,0.771407
16080.000000,0.770508
16085.000000,0.769660
16090.000000,0.768632
16095.000000,0.767750
16100.000000,0.766808
16105.000000,0.766138
16110.000000,0.765138
16115.000000,0.764368
16120.000000,0.763344
16125.000000,0.762536
16130.000000,0.761850
16135.000000,0.761100
16140.000000,0.760463
16145.000000,0.759618
16150.000000,0.758783
16155.000000,0.758213
16160.000000,0.757539
16165.000000,0.757068
16170.000000,0.756713
16175.000000,0.756181
16180.000000,0.755713
16185.000000,0.755313
16190.000000,0.755151
16195.000000,0.754611
16200.000000,0.754467
16205.000000,0.754084
16210.000000,0.754067
16215.000000,0.753973
16220.000000,0.753907
16225.000000,0.753865
16230.000000,0.754062
16235.000000,0.753944
16240.000000,0.754206
16245.000000,0.754386
16250.000000,0.754699
16255.000000,0.755044
16260.000000,0.755458
16265.000000,0.755864
16270.000000,0.756527
16275.000000,0.757078
16280.000000,0.757713
16285.000000,0.758350
16290.000000,0.758999
16295.000000,0.759661
16300.000000,0.760392
16305.000000,0.761317
16310.000000,0.762260
16315.000000,0.763075
16320.000000,0.763934
16325.000000,0.765115
16330.000000,0.766157
16335.000000,0.767166
16340.000000,0.768426
16345.000000,0.769341
16350.000000,0.770271
16355.000000,0.771698
16360.000000,0.773020
16365.000000,0.773836
16370.000000,0.775198
16375.000000,0.776385
16380.000000,0.777766
16385.000000,0.778891
16390.000000,0.780003
16395.000000,0.781277
16400.000000,0.782690
16405.000000,0.784083
16410.000000,0.785452
16415.000000,0.786510
16420.000000,0.787808
16425.000000,0.789245
16430.000000,0.790173
16435.000000,0.791416
16440.000000,0.792708
16445.000000,0.793852
16450.000000,0.795170
16455.000000,0.796291
16460.000000,0.797348
16465.000000,0.798483
16470.000000,0.799459
16475.000000,0.800750
16480.000000,0.801680
16485.000000,0.802738
16490.000000,0.803556
16495.000000,0.804552
16500.000000,0.805515
16505.000000,0.806231
16510.000000,0.807178
16515.000000,0.807864
16520.000000,0.808494
16525.000000,0.809300
16530.000000,0.809960
16535.000000,0.810800
16540.000000,0.811058
16545.000000,0.811725
16550.000000,0.812413
16555.000000,0.812901
16560.000000,0.813232
16565.000000,0.813510
16570.000000,0.814016
16575.000000,0.814376
16580.000000,0.814530
16585.000000,0.815107
16590.000000,0.815263
16595.000000,0.815305
16600.000000,0.815517
16605.000000,0.815855
16610.000000,0.815675
16615.000000,0.816136
16620.000000,0.815952
16625.000000,0.815798
16630.000000,0.816100
16635.000000,0.815961
16640.000000,0.815908
16645.000000,0.815875
16650.000000,0.815851
16655.000000,0.815551
16660.000000,0.815432
16665.000000,0.815191
16670.000000,0.815114
16675.000000,0.815193
16680.000000,0.814863
16685.000000,0.814578
16690.000000,0.814285
16695.000000,0.814096
16700.000000,0.813883
16705.000000,0.813517
16710.000000,0.813310
16715.000000,0.813048
16720.000000,0.812815
16725.000000,0.812427
16730.000000,0.812109
16735.000000,0.811772
16740.000000,0.811519
16745.000000,0.811298
16750.000000,0.810833
16755.000000,0.810651
16760.000000,0.810227
16765.000000,0.809650
16770.000000,0.809632
16775.000000,0.809047
16780.000000,0.808821
16785.000000,0.808734
16790.000000,0.808041
16795.000000,0.807833
16800.000000,0.807455
16805.000000,0.806953
16810.000000,0.806789
16815.000000,0.806180
16820.000000,0.805844
16825.000000,0.805845
16830.000000,0.805304
16835.000000,0.804840
16840.000000,0.804847
16845.000000,0.804279
16850.000000,0.803895
16855.000000,0.803479
16860.000000,0.802915
16865.000000,0.802803
16870.000000,0.802208
16875.000000,0.801822
16880.000000,0.801758
16885.000000,0.801212
16890.000000,0.800859
16895.000000,0.800520
16900.000000,0.800008
16905.000000,0.799548
16910.000000,0.799538
16915.000000,0.798974
16920.000000,0.798705
16925.000000,0.798387
16930.000000,0.797844
16935.000000,0.797629
16940.000000,0.797221
16945.000000,0.796904
16950.000000,0.796611
16955.000000,0.796205
16960.000000,0.795827
16965.000000,0.795621
16970.000000,0.795242
16975.000000,0.795240
16980.000000,0.794667
16985.000000,0.794384
16990.000000,0.794096
16995.000000,0.793786
17000.000000,0.793629
17005.000000,0.793255
17010.000000,0.792826
17015.000000,0.792761
17020.000000,0.792616
17025.000000,0.791950
17030.000000,0.792179
17035.000000,0.791886
17040.000000,0.791858
17045.000000,0.791609
17050.000000,0.791354
17055.000000,0.791280
17060.000000,0.791310
17065.000000,0.791064
17070.000000,0.791145
17075.000000,0.790859
17080.000000,0.790839
17085.000000,0.790722
17090.000000,0.790922
17095.000000,0.790721
17100.000000,0.790980
17105.000000,0.790780
17110.000000,0.790893
17115.000000,0.791154
17120.000000,0.791072
17125.000000,0.791296
17130.000000,0.791575
17135.000000,0.791912
17140.000000,0.791839
17145.000000,0.792082
17150.000000,0.792145
17155.000000,0.792314
17160.000000,0.792838
17165.000000,0.792986
17170.000000,0.793556
17175.000000,0.793768
17180.000000,0.794203
17185.000000,0.794579
17190.000000,0.795014
17195.000000,0.795438
17200.000000,0.796012
17205.000000,0.796149
17210.000000,0.796863
17215.000000,0.796802
17220.000000,0.797456
17225.000000,0.798128
17230.000000,0.798554
17235.000000,0.798988
17240.000000,0.799320
17245.000000,0.799624
17250.000000,0.800417
17255.000000,0.801158
17260.000000,0.801535
17265.000000,0.802167
17270.000000,0.802416
17275.000000,0.802904
17280.000000,0.803506
17285.000000,0.803930
17290.000000,0.804453
17295.000000,0.804941
17300.000000,0.805412
17305.000000,0.805789
17310.000000,0.806015
17315.000000,0.806530
17330.000000,0.807715
17335.000000,0.807884
17340.000000,0.808108
17345.000000,0.808447
17350.000000,0.808589
17355.000000,0.809072
17360.000000,0.808965
17365.000000,0.809220
17370.000000,0.809335
17375.000000,0.809541
17380.000000,0.809308
17385.000000,0.809371
17390.000000,0.809208
17395.000000,0.809002
17400.000000,0.808845
17405.000000,0.808833
17410.000000,0.808586
17415.000000,0.808421
17420.000000,0.808000
17425.000000,0.807806
17430.000000,0.807345
17435.000000,0.806838
17440.000000,0.806370
17445.000000,0.805825
17450.000000,0.805393
17455.000000,0.804840
17460.000000,0.804036
17465.000000,0.803295
17470.000000,0.802765
17475.000000,0.801954
17480.000000,0.801180
17485.000000,0.800231
17490.000000,0.799448
17495.000000,0.798618
17500.000000,0.797644
17505.000000,0.796764
17510.000000,0.795632
17515.000000,0.794812
17520.000000,0.793534
17525.000000,0.792531
17530.000000,0.791238
17535.000000,0.790412
17540.000000,0.789374
17545.000000,0.787991
17550.000000,0.786448
17555.000000,0.785662
17560.000000,0.784310
17565.000000,0.783536
17570.000000,0.782060
17575.000000,0.780731
17580.000000,0.779664
17585.000000,0.778427
17590.000000,0.777000
17595.000000,0.775906
17600.000000,0.774783
17605.000000,0.773593
17610.000000,0.772277
17615.000000,0.771257
17620.000000,0.769967
17625.000000,0.769007
17630.000000,0.767833
17635.000000,0.766686
17640.000000,0.765433
17645.000000,0.764497
17650.000000,0.763657
17655.000000,0.762640
17660.000000,0.761817
17665.000000,0.760946
17670.000000,0.759765
17675.000000,0.758991
17680.000000,0.758176
17685.000000,0.757349
17690.000000,0.756584
17695.000000,0.755774
17700.000000,0.755120
17705.000000,0.754564
17710.000000,0.754170
17715.000000,0.753648
17720.000000,0.753294
17725.000000,0.752918
17730.000000,0.752100
17735.000000,0.752028
17740.000000,0.751324
17745.000000,0.751352
17750.000000,0.751290
17755.000000,0.751088
17760.000000,0.751144
17765.000000,0.750908
17770.000000,0.750914
17775.000000,0.751081
17780.000000,0.751268
17785.000000,0.751537
17790.000000,0.751659
17795.000000,0.752167
17800.000000,0.752367
17805.000000,0.752835
17810.000000,0.752825
17815.000000,0.753716
17820.000000,0.754110
17825.000000,0.754557
17830.000000,0.755684
17835.000000,0.756358
17840.000000,0.757230
17845.000000,0.757835
17850.000000,0.758527
17855.000000,0.759594
17860.000000,0.760521
17865.000000,0.761341
17870.000000,0.762471
17875.000000,0.763400
17880.000000,0.764619
17885.000000,0.766131
17890.000000,0.766989
17895.000000,0.768017
17900.000000,0.769117
17905.000000,0.770773
17910.000000,0.771812
17915.000000,0.773393
17920.000000,0.774882
17925.000000,0.776228
17930.000000,0.777264
17935.000000,0.778865
17940.000000,0.780435
17945.000000,0.781827
17950.000000,0.783187
17955.000000,0.785086
17960.000000,0.786334
17965.000000,0.787799
17970.000000,0.789359
17975.000000,0.790913
17980.000000,0.792444
17985.000000,0.794183
17990.000000,0.795558
17995.000000,0.796944
18000.000000,0.798504
18005.000000,0.800333
18010.000000,0.801765
18015.000000,0.803122
18020.000000,0.804790
18025.000000,0.806312
18030.000000,0.807488
18035.000000,0.809197
18040.000000,0.810063
18045.000000,0.811414
18050.000000,0.813012
18055.000000,0.814281
18060.000000,0.815706
18065.000000,0.816998
18070.000000,0.817963
18075.000000,0.819294
18080.000000,0.820623
18085.000000,0.821656
18090.000000,0.822460
18095.000000,0.823739
18100.000000,0.824511
18105.000000,0.825558
18110.000000,0.826800
18115.000000,0.827512
18120.000000,0.828161
18125.000000,0.829053
18130.000000,0.829568
18135.000000,0.830430
18140.000000,0.831031
18145.000000,0.831401
18150.000000,0.832219
18155.000000,0.832507
18160.000000,0.833197
18165.000000,0.833752
18170.000000,0.834099
18175.000000,0.834411
18180.000000,0.834648
18185.000000,0.834400
18190.000000,0.834887
18195.000000,0.835016
18200.000000,0.835301
18205.000000,0.835557
18210.000000,0.835341
18215.000000,0.835328
18220.000000,0.835482
18225.000000,0.835255
18230.000000,0.835060
18235.000000,0.835341
18240.000000,0.835160
18245.000000,0.834989
18250.000000,0.834569
18255.000000,0.834589
18260.000000,0.834187
18265.000000,0.833399
18270.000000,0.833145
18275.000000,0.833180
18280.000000,0.832877
18285.000000,0.832456
18290.000000,0.831808
18295.000000,0.831743
18300.000000,0.831606
18305.000000,0.831003
18310.000000,0.830679
18315.000000,0.830053
18320.000000,0.829368
18325.000000,0.829264
18330.000000,0.828749
18335.000000,0.828197
18340.000000,0.827982
18345.000000,0.827409
18350.000000,0.826769
18355.000000,0.826637
18360.000000,0.826560
18365.000000,0.825755
18370.000000,0.825132
18375.000000,0.825016
18380.000000,0.824764
18385.000000,0.824283
18390.000000,0.823862
18395.000000,0.824071
18400.000000,0.823583
18405.000000,0.823252
18410.000000,0.822643
18415.000000,0.822636
18420.000000,0.822355
18425.000000,0.821657
18430.000000,0.821873
18435.000000,0.821863
18440.000000,0.821644
18445.000000,0.822044
18450.000000,0.821728
18455.000000,0.821271
18460.000000,0.821428
18465.000000,0.821442
18470.000000,0.821340
18475.000000,0.821859
18480.000000,0.821951
18485.000000,0.821881
18490.000000,0.821280
18495.000000,0.822035
18500.000000,0.821892
18505.000000,0.822197
18510.000000,0.822177
18515.000000,0.822715
18520.000000,0.823115
18525.000000,0.822714
18530.000000,0.823592
18535.000000,0.823874
18540.000000,0.823971
18545.000000,0.824546
18550.000000,0.824816
18555.000000,0.825395
18560.000000,0.825966
18565.000000,0.826241
18570.000000,0.826610
18575.000000,0.827163
18580.000000,0.827599
18585.000000,0.828081
18590.000000,0.828730
18595.000000,0.829383
18600.000000,0.829916
18605.000000,0.830941
18610.000000,0.831282
18615.000000,0.831947
18620.000000,0.832485
18625.000000,0.833368
18630.000000,0.833922
18635.000000,0.834604
18640.000000,0.835253
18645.000000,0.835992
18650.000000,0.836156
18655.000000,0.837365
18660.000000,0.837818
18665.000000,0.838424
18670.000000,0.839505
18675.000000,0.839993
18680.000000,0.841009
18685.000000,0.841816
18690.000000,0.842726
18695.000000,0.843194
18700.000000,0.843804
18705.000000,0.844535
18710.000000,0.845841
18715.000000,0.846298
18720.000000,0.847445
18725.000000,0.847724
18730.000000,0.848378
18735.000000,0.849469
18740.000000,0.850427
18745.000000,0.850956
18750.000000,0.851173
18755.000000,0.852104
18760.000000,0.852709
18765.000000,0.853384
18770.000000,0.854225
18775.000000,0.854971
18780.000000,0.855570
18785.000000,0.856092
18790.000000,0.856665
18795.000000,0.857171
18800.000000,0.857517
18805.000000,0.858594
18810.000000,0.859202
18815.000000,0.859612
18820.000000,0.860395
18825.000000,0.861020
18830.000000,0.861091
18835.000000,0.861685
18840.000000,0.862593
18845.000000,0.863126
18850.000000,0.863358
18855.000000,0.863831
18860.000000,0.864524
18865.000000,0.864706
18870.000000,0.865394
18875.000000,0.865257
18880.000000,0.866028
18885.000000,0.866175
18890.000000,0.866306
18895.000000,0.867106
18900.000000,0.866893
18905.000000,0.867335
18910.000000,0.868194
18915.000000,0.868324
18920.000000,0.868798
18925.000000,0.868801
18930.000000,0.868845
18935.000000,0.869440
18940.000000,0.869383
18945.000000,0.869227
18950.000000,0.869616
18955.000000,0.869683
18960.000000,0.870198
18965.000000,0.870070
18970.000000,0.870432
18975.000000,0.870295
18980.000000,0.870076
18985.000000,0.870677
18990.000000,0.870721
18995.000000,0.871435
19000.000000,0.871512
19005.000000,0.871217
19010.000000,0.871382
19015.000000,0.871859
19020.000000,0.871505
19025.000000,0.871345
19030.000000,0.871645
19035.000000,0.871431
19040.000000,0.871954
19045.000000,0.872172
19050.000000,0.871994
19055.000000,0.872786
19060.000000,0.871930
19065.000000,0.871866
19070.000000,0.872851
19075.000000,0.871550
19080.000000,0.872118
19085.000000,0.872129
19090.000000,0.872340
19095.000000,0.872406
19100.000000,0.872227
19105.000000,0.872322
19110.000000,0.872334
19115.000000,0.872600
19120.000000,0.872549
19125.000000,0.872557
19130.000000,0.872050
19135.000000,0.871276
19140.000000,0.871746
19145.000000,0.871724
19150.000000,0.871789
19155.000000,0.871540
19160.000000,0.871641
19165.000000,0.871748
19170.000000,0.871854
19175.000000,0.871792
19180.000000,0.871888
19185.000000,0.871278
19190.000000,0.871066
19195.000000,0.870952
19200.000000,0.870765
19205.000000,0.870712
19210.000000,0.870411
19215.000000,0.870406
19220.000000,0.870345
19225.000000,0.869774
19230.000000,0.869642
19235.000000,0.869430
19240.000000,0.869133
19245.000000,0.868936
19250.000000,0.869162
19255.000000,0.868653
19260.000000,0.868378
19265.000000,0.868724
19270.000000,0.868477
19275.000000,0.868246
19280.000000,0.867397
19285.000000,0.867461
19290.000000,0.867219
19295.000000,0.866230
19300.000000,0.866047
19305.000000,0.865953
19310.000000,0.865328
19315.000000,0.865235
19320.000000,0.864490
19325.000000,0.864594
19330.000000,0.864144
19335.000000,0.863890
19340.000000,0.863180
19345.000000,0.863344
19350.000000,0.862948
19355.000000,0.862603
19360.000000,0.861903
19365.000000,0.861663
19370.000000,0.861480
19375.000000,0.860871
19380.000000,0.860164
19385.000000,0.859488
19390.000000,0.859362
19395.000000,0.858931
19400.000000,0.858285
19405.000000,0.857677
19410.000000,0.857268
19415.000000,0.857178
19420.000000,0.856577
19425.000000,0.856069
19430.000000,0.855828
19435.000000,0.855596
19440.000000,0.854812
19445.000000,0.854226
19450.000000,0.854116
19455.000000,0.853158
19460.000000,0.853268
19465.000000,0.852408
19470.000000,0.852024
19475.000000,0.851416
19480.000000,0.850979
19485.000000,0.850332
19490.000000,0.850392
19495.000000,0.849767
19500.000000,0.848885
19505.000000,0.848422
19510.000000,0.848155
19515.000000,0.847957
19520.000000,0.847814
19525.000000,0.847208
19530.000000,0.846914
19535.000000,0.846642
19540.000000,0.845589
19545.000000,0.845303
19550.000000,0.845120
19555.000000,0.844333
19560.000000,0.844153
19565.000000,0.843552
19570.000000,0.843407
19575.000000,0.843210
19580.000000,0.842649
19585.000000,0.842533
19590.000000,0.842200
19595.000000,0.841565
19600.000000,0.841271
19605.000000,0.841242
19610.000000,0.841197
19615.000000,0.840634
19620.000000,0.840581
19625.000000,0.839934
19630.000000,0.839780
19635.000000,0.839529
19640.000000,0.839686
19645.000000,0.839296
19650.000000,0.838362
19655.000000,0.838611
19660.000000,0.838253
19665.000000,0.838117
19670.000000,0.838100
19675.000000,0.837789
19680.000000,0.837995
19685.000000,0.838014
19690.000000,0.837804
19695.000000,0.837877
19700.000000,0.837682
19705.000000,0.837597
19710.000000,0.837510
19715.000000,0.837577
19720.000000,0.837195
19725.000000,0.837636
19730.000000,0.837327
19735.000000,0.837308
19740.000000,0.837219
19745.000000,0.837346
19750.000000,0.837384
19755.000000,0.837354
19760.000000,0.837497
19765.000000,0.837901
19770.000000,0.837575
19775.000000,0.837545
19780.000000,0.838864
19785.000000,0.837568
19790.000000,0.838448
19795.000000,0.838514
19800.000000,0.838955
19805.000000,0.838353
19810.000000,0.839167
19815.000000,0.838878
19820.000000,0.838944
19825.000000,0.838965
19830.000000,0.839804
19835.000000,0.839782
19840.000000,0.840239
19845.000000,0.840797
19850.000000,0.840873
19855.000000,0.841346
19860.000000,0.840901
19865.000000,0.841541
19870.000000,0.841818
19875.000000,0.841549
19880.000000,0.841814
19885.000000,0.841977
19890.000000,0.842600
19895.000000,0.842735
19900.000000,0.842810
19905.000000,0.843093
19910.000000,0.843021
19915.000000,0.843888
19920.000000,0.843851
19925.000000,0.844157
19930.000000,0.844665
19935.000000,0.845160
19940.000000,0.844711
19945.000000,0.845116
19950.000000,0.845383
19955.000000,0.845744
19960.000000,0.845898
19965.000000,0.845944
19970.000000,0.846466
19975.000000,0.846020
19980.000000,0.846467
19985.000000,0.846297
19990.000000,0.847576
19995.000000,0.847618
20000.000000,0.847409
20005.000000,0.847941
20010.000000,0.848050
20015.000000,0.849020
20020.000000,0.848389
20025.000000,0.848940
20030.000000,0.849275
20035.000000,0.848933
20040.000000,0.849134
20045.000000,0.848824
20050.000000,0.849193
20055.000000,0.849365
20060.000000,0.849331
20065.000000,0.849589
20070.000000,0.849825
20075.000000,0.850056
20080.000000,0.849615
20085.000000,0.850231
20090.000000,0.849800
20095.000000,0.850033
20100.000000,0.850027
20105.000000,0.849975
20110.000000,0.850652
20115.000000,0.850129
20120.000000,0.850329
20125.000000,0.850409
20130.000000,0.850242
20135.000000,0.849956
20140.000000,0.849892
20145.000000,0.849639
20150.000000,0.849622
20155.000000,0.849941
20160.000000,0.849531
20165.000000,0.849414
20170.000000,0.849405
20175.000000,0.849143
20180.000000,0.849527
20185.000000,0.849564
20190.000000,0.849659
20195.000000,0.849200
20200.000000,0.848787
20205.000000,0.848535
20210.000000,0.848497
20215.000000,0.848113
20220.000000,0.847867
20225.000000,0.847393
20230.000000,0.847831
20235.000000,0.847629
20240.000000,0.847532
20245.000000,0.847118
20250.000000,0.847129
20255.000000,0.846872
20260.000000,0.846517
20265.000000,0.846463
20270.000000,0.846224
20275.000000,0.846138
20280.000000,0.845437
20285.000000,0.845537
20290.000000,0.845612
20295.000000,0.844831
20300.000000,0.844697
20305.000000,0.844449
20310.000000,0.843954
20315.000000,0.843458
20320.000000,0.843548
20325.000000,0.843212
20330.000000,0.842965
20335.000000,0.842734
20340.000000,0.842201
20345.000000,0.842451
20350.000000,0.842372
20355.000000,0.842422
20360.000000,0.842180
20365.000000,0.841517
20370.000000,0.841646
20375.000000,0.841177
20380.000000,0.840558
20385.000000,0.840924
20390.000000,0.840031
20395.000000,0.840252
20400.000000,0.839595
20405.000000,0.839579
20410.000000,0.839312
20415.000000,0.838939
20420.000000,0.838750
20425.000000,0.838803
20430.000000,0.837809
20435.000000,0.837761
20440.000000,0.838225
20445.000000,0.838241
20450.000000,0.837623
20455.000000,0.837424
20460.000000,0.837725
20465.000000,0.837565
20470.000000,0.837539
20475.000000,0.836548
20480.000000,0.836679
20485.000000,0.836158
20490.000000,0.836489
20495.000000,0.836037
20500.000000,0.835631
20505.000000,0.835629
20510.000000,0.835523
20515.000000,0.835780
20520.000000,0.835721
20525.000000,0.835591
20530.000000,0.834787
20535.000000,0.836208
20540.000000,0.835320
20545.000000,0.834787
20550.000000,0.835007
20555.000000,0.834604
20560.000000,0.834572
20565.000000,0.835039
20570.000000,0.834055
20575.000000,0.834853
20580.000000,0.834220
20585.000000,0.834650
20590.000000,0.834228
20595.000000,0.834581
20600.000000,0.834003
20605.000000,0.834618
20610.000000,0.834171
20615.000000,0.834370
20620.000000,0.834406
20625.000000,0.834999
20630.000000,0.835217
20635.000000,0.835145
20640.000000,0.834483
20645.000000,0.834831
20650.000000,0.834146
20655.000000,0.835208
20660.000000,0.834817
20665.000000,0.834356
20670.000000,0.834621
20675.000000,0.834372
20680.000000,0.835611
20685.000000,0.835305
20690.000000,0.834830
20695.000000,0.835959
20700.000000,0.835685
20705.000000,0.835956
20710.000000,0.836126
20715.000000,0.835953
20720.000000,0.835806
20725.000000,0.835955
20730.000000,0.836677
20735.000000,0.836459
20740.000000,0.836386
20745.000000,0.836432
20750.000000,0.836683
20755.000000,0.836580
20760.000000,0.836921
20765.000000,0.837222
20770.000000,0.838125
20775.000000,0.837690
20780.000000,0.837707
20785.000000,0.837897
20790.000000,0.837547
20795.000000,0.837936
20800.000000,0.838090
20805.000000,0.838422
20810.000000,0.838548
20815.000000,0.838879
20820.000000,0.839702
20825.000000,0.839347
20830.000000,0.839393
20835.000000,0.839504
20840.000000,0.839551
20845.000000,0.839379
20850.000000,0.839656
20855.000000,0.840232
20860.000000,0.840686
20865.000000,0.839857
20870.000000,0.840531
20875.000000,0.840973
20880.000000,0.840648
20885.000000,0.841138
20890.000000,0.841167
20895.000000,0.841767
20900.000000,0.840998
20905.000000,0.841393
20910.000000,0.841391
20915.000000,0.841761
20920.000000,0.841530
20925.000000,0.841284
20930.000000,0.842403
20935.000000,0.842374
20940.000000,0.842336
20945.000000,0.842766
20950.000000,0.842223
20955.000000,0.842606
20960.000000,0.842817
20965.000000,0.842493
20970.000000,0.842805
20975.000000,0.842464
20980.000000,0.842910
20985.000000,0.842601
20990.000000,0.842506
20995.000000,0.843143
21000.000000,0.843158
21005.000000,0.842734
21010.000000,0.842584
21015.000000,0.842772
21020.000000,0.842587
21025.000000,0.842735
21030.000000,0.842438
21035.000000,0.841973
21040.000000,0.842793
21045.000000,0.842723
21050.000000,0.842197
21055.000000,0.842510
21060.000000,0.841998
21065.000000,0.842015
21070.000000,0.842057
21075.000000,0.841404
21080.000000,0.841355
21085.000000,0.841246
21090.000000,0.840989
21095.000000,0.841347
21100.000000,0.840021
21105.000000,0.840777
21110.000000,0.840464
21115.000000,0.840348
21120.000000,0.840322
21125.000000,0.839732
21130.000000,0.839524
21135.000000,0.839819
21140.000000,0.839521
21145.000000,0.838925
21150.000000,0.838615
21155.000000,0.837657
21160.000000,0.838178
21165.000000,0.837321
21170.000000,0.836861
21175.000000,0.836905
21180.000000,0.835547
21185.000000,0.836144
21190.000000,0.835355
21195.000000,0.835237
21200.000000,0.834512
21205.000000,0.834183
21210.000000,0.833395
21215.000000,0.833288
21220.000000,0.833141
21225.000000,0.832588
21230.000000,0.832308
21235.000000,0.831755
21240.000000,0.831811
21245.000000,0.830934
21250.000000,0.830095
21255.000000,0.829355
21260.000000,0.829761
21265.000000,0.829035
21270.000000,0.828469
21275.000000,0.827584
21280.000000,0.827176
21285.000000,0.826630
21290.000000,0.825967
21295.000000,0.825943
21300.000000,0.824854
21305.000000,0.825150
21310.000000,0.824088
21315.000000,0.823269
21320.000000,0.823276
21325.000000,0.822965
21330.000000,0.821971
21335.000000,0.821108
21340.000000,0.820661
21345.000000,0.820223
21350.000000,0.819833
21355.000000,0.819277
21360.000000,0.818214
21365.000000,0.817809
21370.000000,0.817505
21375.000000,0.816965
21380.000000,0.816912
21385.000000,0.816379
21390.000000,0.815790
21395.000000,0.814181
21400.000000,0.813999
21405.000000,0.813821
21410.000000,0.813431
21415.000000,0.812178
21420.000000,0.812129
21425.000000,0.810907
21430.000000,0.810704
21435.000000,0.810233
21440.000000,0.810038
21445.000000,0.809367
21450.000000,0.808895
21455.000000,0.808371
21460.000000,0.807204
21465.000000,0.807170
21470.000000,0.806859
21475.000000,0.806572
21480.000000,0.806863
21485.000000,0.805608
21490.000000,0.805310
21495.000000,0.805350
21500.000000,0.804889
21505.000000,0.804710
21510.000000,0.804290
21515.000000,0.804129
21520.000000,0.803376
21525.000000,0.803307
21530.000000,0.802722
21535.000000,0.802671
21540.000000,0.802342
21545.000000,0.801995
21550.000000,0.801824
21555.000000,0.802028
21560.000000,0.801520
21565.000000,0.801581
21570.000000,0.801738
21575.000000,0.801642
21580.000000,0.801067
21585.000000,0.801319
21590.000000,0.801272
21595.000000,0.800898
21600.000000,0.801267
21605.000000,0.800933
21610.000000,0.800770
21615.000000,0.801573
21620.000000,0.801052
21625.000000,0.800930
21630.000000,0.800936
21635.000000,0.801258
21640.000000,0.801340
21645.000000,0.800785
21650.000000,0.801463
21655.000000,0.801354
21660.000000,0.801794
21665.000000,0.801512
21670.000000,0.801742
21675.000000,0.802281
21680.000000,0.802215
21685.000000,0.802748
21690.000000,0.802465
21695.000000,0.802612
21700.000000,0.802217
21705.000000,0.802508
21710.000000,0.802598
21715.000000,0.803156
21720.000000,0.803169
21725.000000,0.803877
21730.000000,0.804079
21735.000000,0.804270
21740.000000,0.804086
21745.000000,0.804580
21750.000000,0.804655
21755.000000,0.805405
21760.000000,0.805649
21765.000000,0.805644
21770.000000,0.805932
21775.000000,0.806001
21780.000000,0.806328
21785.000000,0.805747
21790.000000,0.806569
21795.000000,0.806412
21800.000000,0.806834
21805.000000,0.807233
21810.000000,0.807768
21815.000000,0.807488
21820.000000,0.807643
21825.000000,0.807864
21830.000000,0.807896
21835.000000,0.807078
21840.000000,0.806656
21845.000000,0.806997
21850.000000,0.806191
21855.000000,0.805822
21860.000000,0.805816
21865.000000,0.804952
21870.000000,0.805110
21875.000000,0.804028
21880.000000,0.803556
21885.000000,0.802687
21890.000000,0.801875
21895.000000,0.800797
21900.000000,0.799562
21905.000000,0.798423
21910.000000,0.796848
21915.000000,0.795240
21920.000000,0.793768
21925.000000,0.791853
21930.000000,0.790066
21935.000000,0.787962
21940.000000,0.785716
21945.000000,0.783853
21950.000000,0.781371
21955.000000,0.779249
21960.000000,0.776149
21965.000000,0.773677
21970.000000,0.770597
21975.000000,0.767490
21980.000000,0.764978
21985.000000,0.762521
21990.000000,0.759176
21995.000000,0.756305
22000.000000,0.753006
22005.000000,0.750263
22010.000000,0.747721
22015.000000,0.744572
22020.000000,0.741590
22025.000000,0.738934
22030.000000,0.735450
22035.000000,0.733060
22040.000000,0.730238
22045.000000,0.727264
22050.000000,0.724805
22055.000000,0.722421
22060.000000,0.720505
22065.000000,0.718255
22070.000000,0.715597
22075.000000,0.713559
22080.000000,0.711985
22085.000000,0.709701
22090.000000,0.707445
22095.000000,0.706176
22100.000000,0.704719
22105.000000,0.702866
22110.000000,0.701168
22115.000000,0.699430
22120.000000,0.698279
22125.000000,0.696438
22130.000000,0.695100
22135.000000,0.694561
22140.000000,0.692604
22145.000000,0.690994
22150.000000,0.690486
22155.000000,0.688959
22160.000000,0.687602
22165.000000,0.686538
22170.000000,0.685540
22175.000000,0.684496
22180.000000,0.683167
22185.000000,0.682086
22190.000000,0.680778
22195.000000,0.679330
22200.000000,0.678479
22205.000000,0.676854
22210.000000,0.675687
22215.000000,0.675023
22220.000000,0.673502
22225.000000,0.672084
22230.000000,0.671506
22235.000000,0.670122
22240.000000,0.668987
22245.000000,0.667474
22250.000000,0.665824
22255.000000,0.664848
22260.000000,0.663302
22265.000000,0.661866
22270.000000,0.660588
22275.000000,0.658816
22280.000000,0.657328
22285.000000,0.656573
22290.000000,0.654268
22295.000000,0.652960
22300.000000,0.651749
22305.000000,0.649990
22310.000000,0.648010
22315.000000,0.646956
22320.000000,0.645143
22325.000000,0.643790
22330.000000,0.641909
22335.000000,0.640666
22340.000000,0.639388
22345.000000,0.637504
22350.000000,0.635865
22355.000000,0.634201
22360.000000,0.632800
22365.000000,0.631808
22370.000000,0.629863
22375.000000,0.628020
22380.000000,0.626509
22385.000000,0.625761
22390.000000,0.623706
22395.000000,0.622742
22400.000000,0.620671
22405.000000,0.619649
22410.000000,0.618813
22415.000000,0.617705
22420.000000,0.616899
22425.000000,0.615519
22430.000000,0.614683
22435.000000,0.614297
22440.000000,0.612916
22445.000000,0.611585
22450.000000,0.611183
22455.000000,0.610018
22460.000000,0.609520
22465.000000,0.609267
22470.000000,0.608727
22475.000000,0.607901
22480.000000,0.608550
22485.000000,0.608315
22490.000000,0.607439
22495.000000,0.608014
22500.000000,0.607407
22505.000000,0.608062
22510.000000,0.607856
22515.000000,0.607927
22520.000000,0.608749
22525.000000,0.608501
22530.000000,0.609661
22535.000000,0.610403
22540.000000,0.611192
22545.000000,0.612576
22550.000000,0.612575
22555.000000,0.614203
22560.000000,0.615856
22565.000000,0.616490
22570.000000,0.618244
22575.000000,0.619546
22580.000000,0.620972
22585.000000,0.623010
22590.000000,0.624567
22595.000000,0.626226
22600.000000,0.629102
22605.000000,0.630747
22610.000000,0.632407
22615.000000,0.635605
22620.000000,0.637407
22625.000000,0.641018
22630.000000,0.643808
22635.000000,0.646094
22640.000000,0.650169
22645.000000,0.652622
22650.000000,0.656196
22655.000000,0.658851
22660.000000,0.663134
22665.000000,0.666555
22670.000000,0.669578
22675.000000,0.673781
22680.000000,0.677514
22685.000000,0.681348
22690.000000,0.685466
22695.000000,0.689951
22700.000000,0.693631
22705.000000,0.697759
22710.000000,0.702442
22715.000000,0.707386
22720.000000,0.711602
22725.000000,0.715268
22730.000000,0.720300
22735.000000,0.724867
22740.000000,0.729695
22745.000000,0.733986
22750.000000,0.738021
22755.000000,0.743146
22760.000000,0.748110
22765.000000,0.752224
22770.000000,0.756323
22775.000000,0.760536
22780.000000,0.764551
22785.000000,0.768271
22790.000000,0.771297
22795.000000,0.775369
22800.000000,0.777675
22805.000000,0.780995
22810.000000,0.782874
22815.000000,0.784864
22820.000000,0.786438
22825.000000,0.787292
22830.000000,0.787809
22835.000000,0.788229
22840.000000,0.787656
22845.000000,0.786593
22850.000000,0.785458
22855.000000,0.782805
22860.000000,0.779805
22865.000000,0.776087
22870.000000,0.772083
22875.000000,0.766436
22880.000000,0.759791
22885.000000,0.753163
22890.000000,0.745843
22895.000000,0.737809
22900.000000,0.728845
22905.000000,0.719482
22910.000000,0.708521
22915.000000,0.696618
22920.000000,0.685179
22925.000000,0.673070
22930.000000,0.660069
22935.000000,0.646225
22940.000000,0.631637
22945.000000,0.616498
22950.000000,0.601382
22955.000000,0.586949
22960.000000,0.571467
22965.000000,0.556128
22970.000000,0.540063
22975.000000,0.523379
22980.000000,0.507006
22985.000000,0.491408
22990.000000,0.476513
22995.000000,0.460644
23000.000000,0.445316
23005.000000,0.429026
23010.000000,0.413093
23015.000000,0.398639
23020.000000,0.384561
23025.000000,0.370562
23030.000000,0.356723
23035.000000,0.342437
23040.000000,0.328481
23045.000000,0.315705
23050.000000,0.303866
23055.000000,0.291912
23060.000000,0.280493
23065.000000,0.269159
23070.000000,0.257411
23075.000000,0.246967
23080.000000,0.237149
23085.000000,0.227722
23090.000000,0.218269
23095.000000,0.209659
23100.000000,0.200727
23105.000000,0.191781
23110.000000,0.184226
23115.000000,0.176903
23120.000000,0.169739
23125.000000,0.162708
23130.000000,0.155872
23135.000000,0.149064
23140.000000,0.142697
23145.000000,0.136999
23150.000000,0.131650
23155.000000,0.126224
23160.000000,0.121120
23165.000000,0.115889
23170.000000,0.110973
23175.000000,0.106861
23180.000000,0.102544
23185.000000,0.098303
23190.000000,0.094420
23195.000000,0.090704
23200.000000,0.086952
23205.000000,0.083575
23210.000000,0.080174
23215.000000,0.077121
23220.000000,0.074449
23225.000000,0.071244
23230.000000,0.068368
23235.000000,0.065683
23240.000000,0.063383
23245.000000,0.061266
23250.000000,0.058477
23255.000000,0.056563
23260.000000,0.054359
23265.000000,0.052181
23270.000000,0.050244
23275.000000,0.048531
23280.000000,0.046752
23285.000000,0.045219
23290.000000,0.043343
23295.000000,0.041764
23300.000000,0.040219
23305.000000,0.038949
23310.000000,0.037722
23315.000000,0.036086
23320.000000,0.035016
23325.000000,0.033769
23330.000000,0.032535
23335.000000,0.031394
23340.000000,0.030399
23345.000000,0.029234
23350.000000,0.028449
23355.000000,0.027379
23360.000000,0.026447
23365.000000,0.025416
23370.000000,0.024741
23375.000000,0.024107
23380.000000,0.023234
23385.000000,0.021971
23390.000000,0.021586
23395.000000,0.020852
23400.000000,0.020126
23405.000000,0.019530
23410.000000,0.018672
23415.000000,0.018125
23420.000000,0.018033
23425.000000,0.017125
23430.000000,0.016552
23435.000000,0.016016
23440.000000,0.015575
23445.000000,0.015043
23450.000000,0.014766
23455.000000,0.014224
23460.000000,0.013754
23465.000000,0.013406
23470.000000,0.013143
23475.000000,0.012241
23480.000000,0.012104
23485.000000,0.011936
23490.000000,0.011453
23495.000000,0.011282
23500.000000,0.010991
23505.000000,0.010674
23510.000000,0.010284
23515.000000,0.010146
23520.000000,0.009752
23525.000000,0.009639
23530.000000,0.009212
23535.000000,0.008262
23540.000000,0.008637
23545.000000,0.008465
23550.000000,0.007933
23555.000000,0.007856
23560.000000,0.007930
23565.000000,0.007535
23570.000000,0.007403
23575.000000,0.007278
23580.000000,0.006839
23585.000000,0.006759
23590.000000,0.006721
23595.000000,0.006270
23600.000000,0.006050
23605.000000,0.005877
23610.000000,0.005571
23615.000000,0.005608
23620.000000,0.005669
23625.000000,0.005163
23630.000000,0.005983
23635.000000,0.004789
23640.000000,0.004980
23645.000000,0.005150
23650.000000,0.005100
23655.000000,0.004900
23660.000000,0.004476
23665.000000,0.004228
23670.000000,0.004503
23675.000000,0.004340
23680.000000,0.004444
23685.000000,0.003717
23690.000000,0.003934
23695.000000,0.003988
23700.000000,0.003743
23705.000000,0.003766
23710.000000,0.004509
23715.000000,0.003501
23720.000000,0.003413
23725.000000,0.003168
23730.000000,0.003237
23735.000000,0.003287
23740.000000,0.003534
23745.000000,0.002822
23750.000000,0.002720
23755.000000,0.002672
23760.000000,0.003139
23765.000000,0.002609
23770.000000,0.002877
23775.000000,0.002271
23780.000000,0.002585
23785.000000,0.002598
23790.000000,0.002737
23795.000000,0.002357
23800.000000,0.002201
23805.000000,0.003055
23810.000000,0.002120
23815.000000,0.002338
23820.000000,0.002627
23825.000000,0.002367
23830.000000,0.001894
23835.000000,0.002326
23840.000000,0.002339
23845.000000,0.001888
23850.000000,0.002540
23855.000000,0.002197
23860.000000,0.001844
23865.000000,0.002185
23870.000000,0.001431
23875.000000,0.001620
23880.000000,0.001628
23885.000000,0.001303
23890.000000,0.001600
23895.000000,0.001985
23900.000000,0.000533
23905.000000,0.001370
23910.000000,0.001949
23915.000000,0.001422
23920.000000,0.002304
23925.000000,0.000894
23930.000000,0.001235
23935.000000,0.001331
23940.000000,0.000775
23945.000000,0.000280
23950.000000,0.000640
23955.000000,0.001543
23960.000000,0.001591
23965.000000,0.001437
23970.000000,0.000853
23975.000000,0.001386
23980.000000,0.001228
23985.000000,0.001029
23990.000000,0.001323
23995.000000,0.000624
24000.000000,0.001148
24005.000000,0.001111
24010.000000,0.000926
24015.000000,0.000425
24020.000000,0.000744
24025.000000,0.001493
24030.000000,0.000473
24035.000000,0.001096
24040.000000,0.001101
24045.000000,0.002096
24050.000000,0.001569
24055.000000,0.001574
24060.000000,0.000089
24065.000000,0.001075
24070.000000,0.000329
24075.000000,0.001113
24080.000000,0.000997
24085.000000,0.000779
24090.000000,0.000406
24095.000000,0.000497
24100.000000,0.000241
24105.000000,0.000682
24110.000000,0.000230
24115.000000,0.001203
24120.000000,0.000703
24125.000000,0.000751
24130.000000,0.001113
24135.000000,0.000524
24140.000000,0.000939
24145.000000,0.001564
24150.000000,0.001241
24155.000000,0.000485
24160.000000,0.000821
24165.000000,0.000680
24170.000000,0.000298
24175.000000,-0.000336
24180.000000,-0.000097
24185.000000,0.000733
24190.000000,0.000449
24195.000000,0.000442
24200.000000,0.000296
24205.000000,0.000789
24210.000000,0.000153
24215.000000,0.000595
24220.000000,-0.000098
24225.000000,0.000251
24230.000000,0.000406
24235.000000,0.000205
24240.000000,0.000055
24245.000000,0.001371
24250.000000,0.000511
24255.000000,0.000462
24260.000000,0.000258
24265.000000,0.000158
24270.000000,-0.001034
24275.000000,0.000364
24280.000000,-0.000155
24285.000000,0.000525
24290.000000,0.000790
24295.000000,0.001162
24300.000000,0.000687
24305.000000,-0.000106
24310.000000,0.000001
24315.000000,0.000427
24320.000000,0.001130
24325.000000,0.000103
24330.000000,-0.000219
24335.000000,0.000325
24340.000000,-0.000558
24345.000000,0.000620
24350.000000,0.000895
24355.000000,0.000953
24360.000000,-0.000339
24365.000000,0.000283
24370.000000,0.000217
24375.000000,0.000442
24380.000000,0.000341
24385.000000,0.001069
24390.000000,0.000333
24395.000000,0.000516
24400.000000,-0.000115
24405.000000,-0.000522
24410.000000,0.001046
24415.000000,0.000584
24420.000000,0.000295
24425.000000,0.000339
24430.000000,0.000179
24435.000000,0.000641
24440.000000,0.000525
24445.000000,0.000244
24450.000000,0.000227
24455.000000,0.000739
24460.000000,-0.000123
24465.000000,0.000601
24470.000000,-0.000187
24475.000000,-0.000435
24480.000000,0.001185
24485.000000,0.000253
24490.000000,0.001709
24495.000000,-0.000064
24500.000000,-0.000000
24505.000000,0.000131
24510.000000,-0.000156
24515.000000,0.000325
24520.000000,0.000393
24525.000000,0.002408
24530.000000,0.000196
24535.000000,-0.000423
24540.000000,0.001027
24545.000000,0.000501
24550.000000,-0.001195
24555.000000,-0.000134
24560.000000,0.000001
24565.000000,-0.000507
24570.000000,0.000201
24575.000000,0.000237
24580.000000,0.000103
24585.000000,-0.000133
24590.000000,0.000547
24595.000000,0.000344
24600.000000,-0.000138
24605.000000,0.000206
24610.000000,-0.000000
24615.000000,0.000069
24620.000000,-0.000776
24625.000000,-0.000349
24630.000000,0.000072
24635.000000,0.000456
24640.000000,-0.001056
24645.000000,-0.000319
24650.000000,0.001127
24655.000000,0.001480
24660.000000,0.000495
24665.000000,0.000426
24670.000000,0.000711
24675.000000,0.000316
24680.000000,0.000531
24685.000000,0.000744
24690.000000,-0.000328
24695.000000,0.000142
24700.000000,-0.001519
24705.000000,-0.000146
24710.000000,0.000473
24715.000000,0.002167
24720.000000,0.001276
24725.000000,0.000300
24730.000000,0.000027
24735.000000,0.000691
24740.000000,0.000146
24745.000000,-0.000511
24750.000000,-0.000875
24755.000000,0.001096
24760.000000,0.000100
24765.000000,0.000763
24770.000000,0.000470
24775.000000,-0.000590
24780.000000,0.000001
24785.000000,0.001060
24790.000000,0.000747
24795.000000,0.001298
24800.000000,0.000151
24805.000000,0.000931
24810.000000,-0.000353
24815.000000,-0.000356
24820.000000,0.000229
24825.000000,0.000154
24830.000000,0.000776
24835.000000,0.000704
24840.000000,-0.000078
24845.000000,-0.000698
24850.000000,-0.000311
24855.000000,-0.000288
24860.000000,0.000257
24865.000000,-0.000291
24870.000000,0.002371
24875.000000,-0.000238
24880.000000,0.000897
24885.000000,0.000159
24890.000000,-0.000080
24895.000000,-0.000872
24900.000000,0.000398
24905.000000,0.001115
24910.000000,0.000881
24915.000000,0.000404
24920.000000,0.001315
24925.000000,-0.001046
24930.000000,0.000082
24935.000000,0.002001
24940.000000,0.000505
24945.000000,-0.000083
24950.000000,0.000667
24955.000000,-0.000565
24960.000000,0.000577
24965.000000,0.002125
24970.000000,0.000262
24975.000000,0.001089
24980.000000,0.000578
24985.000000,-0.000560
24990.000000,0.000433
24995.000000,0.000682
25000.000000,0.000167
25000.001953,0.000000
